// General information: 
//  MT Manager version: 2022.0.0 
//  XDA version: 2022.0.0 build 7085 rev 119802 built on 2022-11-08
// Device information: 
//  DeviceId: 037004D1
//  ProductCode: MTi-300-2A5G4
//  Firmware Version: 1.4.1
//  Hardware Version: 2.1.0
// Device settings: 
//  Filter Profile: general(39.16)
//  Option Flags: Orientation Smoother Disabled, Position/Velocity Smoother Disabled, Continuous Zero Rotation Update Disabled, AHS Disabled, ICC Disabled
// Coordinate system: ENU
PacketCounter	SampleTimeFine	Acc_X	Acc_Y	Acc_Z	Gyr_X	Gyr_Y	Gyr_Z
15927	13528061	-0.015410	0.088707	9.815557	-0.007652	0.001301	-0.000253
15928	13528086	-0.028512	0.109550	9.810831	-0.003295	0.001051	-0.002514
15929	13528111	-0.032153	0.095115	9.816594	-0.006901	-0.000107	0.003068
15930	13528136	-0.036344	0.097460	9.788817	-0.002669	0.003517	-0.001989
15931	13528161	-0.037714	0.086176	9.809918	-0.004387	0.001030	-0.002505
15932	13528186	-0.032125	0.091310	9.818996	-0.004540	-0.002001	0.002733
15933	13528211	-0.031927	0.086746	9.809406	-0.003517	-0.004517	-0.002219
15934	13528236	-0.044497	0.106260	9.791257	-0.008176	-0.002587	0.000305
15935	13528261	-0.032422	0.091680	9.794553	-0.005993	-0.002542	0.003186
15936	13528286	-0.022868	0.073263	9.824707	-0.007658	-0.000574	0.000441
15937	13528311	-0.016294	0.091175	9.808846	-0.006662	-0.003718	0.002347
15938	13528336	-0.017356	0.062796	9.805031	-0.005488	-0.002743	-0.002719
15939	13528361	-0.044789	0.091531	9.797013	-0.002559	-0.002630	-0.005928
15940	13528386	-0.045272	0.085664	9.805645	-0.005816	-0.000413	-0.002186
15941	13528411	-0.026817	0.090070	9.810819	-0.007245	0.000533	-0.000709
15942	13528436	-0.019214	0.059076	9.796895	-0.006261	0.001578	-0.001733
15943	13528461	-0.027826	0.096245	9.810342	-0.007227	-0.002052	0.001781
15944	13528486	0.001167	0.073211	9.789111	-0.004935	0.000048	-0.000398
15945	13528511	-0.020402	0.077119	9.798813	-0.003521	-0.000061	-0.003994
15946	13528536	-0.023688	0.079916	9.796430	-0.003251	-0.004044	0.003874
15947	13528561	-0.045349	0.104069	9.783591	-0.002965	-0.001398	-0.001363
15948	13528586	-0.047345	0.096569	9.798947	-0.011060	0.003694	0.000347
15949	13528611	-0.029321	0.099986	9.815623	-0.003663	-0.001670	-0.002202
15950	13528636	-0.012176	0.074400	9.792049	-0.007010	-0.003217	-0.001948
15951	13528661	-0.008520	0.073337	9.804994	-0.002711	0.002740	-0.002441
15952	13528686	-0.021189	0.077842	9.781075	-0.002991	-0.002961	-0.003816
15953	13528711	-0.051822	0.095453	9.781226	-0.003582	-0.008194	0.000329
15954	13528736	-0.041652	0.101837	9.807057	-0.005710	-0.003904	-0.002341
15955	13528761	-0.012331	0.075473	9.816016	-0.004074	-0.002965	-0.000608
15956	13528786	-0.026588	0.076814	9.808900	-0.007226	-0.004187	0.000677
15957	13528811	-0.030333	0.067144	9.816594	-0.008750	-0.001252	-0.005588
15958	13528836	-0.042064	0.098246	9.795552	-0.001442	-0.001252	-0.005995
15959	13528861	-0.028592	0.078691	9.812756	-0.004335	-0.000511	0.001076
15960	13528886	-0.030658	0.093105	9.796472	-0.003308	0.003508	-0.002438
15961	13528911	-0.039460	0.084055	9.789803	-0.008997	0.001538	0.002898
15962	13528936	-0.039809	0.100877	9.810411	0.000592	-0.000562	-0.004134
15963	13528961	-0.024690	0.066626	9.827108	-0.005588	-0.001645	-0.003612
15964	13528986	-0.014792	0.087633	9.797823	0.001064	-0.001854	-0.008571
15965	13529011	-0.015010	0.071101	9.791595	-0.001256	0.001021	-0.003414
15966	13529036	-0.041516	0.119214	9.818556	-0.005382	-0.001889	-0.000596
15967	13529061	-0.043374	0.107166	9.825768	-0.007644	0.005043	-0.002541
15968	13529086	-0.016196	0.099209	9.781535	-0.003508	-0.004841	-0.002801
15969	13529111	-0.002831	0.075252	9.808781	-0.005287	0.001213	-0.001164
15970	13529136	-0.010327	0.071969	9.798765	-0.004032	0.000139	0.000630
15971	13529161	-0.012030	0.079714	9.759458	-0.004441	-0.003628	-0.002980
15972	13529186	-0.012272	0.060631	9.821786	-0.008447	0.002459	0.005716
15973	13529211	-0.018031	0.083881	9.789689	-0.006591	0.000027	0.000054
15974	13529236	-0.026200	0.116124	9.817052	-0.001347	-0.000152	-0.004388
15975	13529261	-0.035881	0.100522	9.801754	-0.009783	-0.004683	-0.000921
15976	13529286	-0.020315	0.097142	9.822297	-0.002968	0.000799	0.000244
15977	13529311	-0.024435	0.098434	9.797382	-0.001097	-0.001556	0.001957
15978	13529336	-0.015690	0.087601	9.796853	-0.003654	-0.004065	-0.002153
15979	13529361	-0.009362	0.075924	9.789165	-0.006598	-0.000115	-0.004247
15980	13529386	-0.017062	0.068789	9.812702	-0.006802	0.002010	-0.008145
15981	13529411	-0.031001	0.082172	9.799349	-0.003611	0.004852	-0.003962
15982	13529436	-0.042388	0.086858	9.794605	-0.000903	0.000125	-0.000985
15983	13529461	-0.036577	0.078273	9.803682	-0.002421	-0.002557	-0.002018
15984	13529486	-0.024074	0.065178	9.799790	-0.002660	0.000662	-0.007395
15985	13529511	-0.037801	0.065095	9.795070	-0.002411	-0.000481	0.000945
15986	13529536	-0.043302	0.085408	9.794612	-0.004847	-0.000530	-0.000584
15987	13529561	-0.041971	0.088161	9.798439	-0.006326	-0.000358	-0.000972
15988	13529586	-0.042722	0.082135	9.790297	-0.007080	-0.001086	-0.002253
15989	13529611	-0.037170	0.074089	9.826220	-0.002161	-0.000745	-0.003424
15990	13529636	-0.048306	0.092408	9.800869	0.000158	0.005174	-0.004482
15991	13529661	-0.027007	0.072711	9.801250	-0.002934	-0.000234	-0.000080
15992	13529686	-0.019942	0.073615	9.810316	-0.003293	-0.001004	0.002800
15993	13529711	0.002874	0.037205	9.819317	-0.003168	-0.001277	-0.003487
15994	13529736	-0.008846	0.065288	9.801628	-0.005704	0.000305	0.002299
15995	13529761	-0.028974	0.084268	9.785910	-0.005895	0.002167	-0.001790
15996	13529786	-0.023990	0.070193	9.780611	-0.005242	-0.000542	-0.004764
15997	13529811	-0.027177	0.085741	9.813209	-0.008516	-0.004278	-0.003681
15998	13529836	-0.026666	0.087829	9.805061	-0.004327	-0.006850	0.000978
15999	13529861	-0.025977	0.103818	9.807929	-0.010745	-0.002381	-0.001676
16000	13529886	-0.019738	0.095285	9.817489	-0.006512	-0.002560	-0.001432
16001	13529911	-0.044912	0.084528	9.814753	-0.008865	0.002885	-0.002038
16002	13529936	-0.037484	0.079270	9.794577	-0.006971	-0.004442	-0.002335
16003	13529961	-0.005569	0.072503	9.799220	-0.004615	-0.001882	-0.001822
16004	13529986	-0.014539	0.070171	9.788717	-0.004941	0.000571	0.001273
16005	13530011	-0.011064	0.091487	9.795411	-0.005107	0.003666	-0.002363
16006	13530036	-0.015724	0.083819	9.796869	-0.003053	0.003374	-0.003205
16007	13530061	-0.035874	0.097185	9.803195	-0.005120	-0.004213	-0.001317
16008	13530086	-0.038319	0.102390	9.803202	-0.008214	-0.003688	-0.002459
16009	13530111	-0.029714	0.094845	9.807004	-0.004795	0.000317	0.001657
16010	13530136	-0.009445	0.074641	9.811695	-0.005661	-0.002731	0.003311
16011	13530161	-0.014006	0.059213	9.792550	-0.006729	0.002417	0.001797
16012	13530186	-0.055196	0.079816	9.810002	-0.004634	-0.003298	0.000684
16013	13530211	-0.042790	0.080138	9.793647	-0.007078	-0.001024	-0.003414
16014	13530236	-0.022815	0.072577	9.809847	-0.007665	0.001620	-0.000769
16015	13530261	-0.021043	0.085901	9.810789	-0.004916	-0.000136	0.001912
16016	13530286	-0.022707	0.073713	9.798824	-0.003141	-0.000121	-0.003867
16017	13530311	-0.049805	0.072063	9.790810	-0.008680	-0.001054	-0.005138
16018	13530336	-0.051908	0.083732	9.803290	-0.003923	-0.001027	0.000948
16019	13530361	-0.023636	0.067325	9.806969	-0.012323	-0.001380	-0.006285
16020	13530386	-0.067271	0.097907	9.793295	-0.006343	0.000553	0.001736
16021	13530411	-0.046844	0.095597	9.808042	-0.003268	0.000010	-0.001678
16022	13530436	-0.035449	0.087406	9.823812	-0.005513	0.002234	-0.004551
16023	13530461	-0.019819	0.079269	9.780581	-0.005093	-0.000994	-0.002518
16024	13530486	-0.033579	0.064057	9.797920	-0.005823	-0.000089	-0.001745
16025	13530511	-0.033479	0.097096	9.806058	-0.011422	-0.005434	-0.003868
16026	13530536	-0.030012	0.087434	9.796465	-0.002684	0.000027	-0.000334
16027	13530561	-0.014593	0.067518	9.808369	-0.004695	-0.000642	0.004928
16028	13530586	-0.005741	0.079559	9.808331	-0.001273	0.001727	-0.001751
16029	13530611	-0.056217	0.087127	9.797549	-0.002037	-0.000618	-0.005470
16030	13530636	-0.027279	0.087108	9.817536	-0.004791	-0.000335	-0.000712
16031	13530661	-0.022305	0.082376	9.789236	-0.007924	0.001480	-0.001596
16032	13530686	-0.041541	0.092037	9.791734	-0.007480	0.004016	0.001045
16033	13530711	-0.010191	0.090777	9.812170	-0.003181	0.001638	-0.000712
16034	13530736	-0.018693	0.086376	9.816051	-0.001331	-0.002412	-0.002085
16035	13530761	-0.053420	0.089901	9.799464	-0.006583	0.001767	-0.001726
16036	13530786	-0.021479	0.078229	9.816070	-0.005434	0.001849	-0.001411
16037	13530811	-0.019841	0.098985	9.818933	-0.009964	0.001121	-0.003517
16038	13530836	-0.004698	0.109199	9.822207	-0.002521	-0.000933	0.000814
16039	13530861	-0.018286	0.089589	9.819879	-0.005716	-0.003183	0.002219
16040	13530886	-0.025672	0.080993	9.814169	-0.007460	-0.007036	0.000598
16041	13530911	-0.020349	0.066379	9.812231	-0.009358	0.000226	-0.002572
16042	13530936	-0.005607	0.055233	9.775736	-0.009377	-0.005190	0.001447
16043	13530961	-0.026938	0.064476	9.810830	-0.004534	-0.002073	0.000811
16044	13530986	-0.015389	0.085181	9.829934	-0.005569	-0.003906	-0.000161
16045	13531011	-0.022903	0.072188	9.835251	-0.005549	-0.000603	-0.001167
16046	13531036	-0.023859	0.084821	9.815593	-0.007375	-0.003940	-0.004001
16047	13531061	0.021273	0.057979	9.811550	-0.001894	-0.003199	-0.004528
16048	13531086	0.002749	0.051548	9.813076	-0.002842	-0.003469	-0.002284
16049	13531111	-0.027246	0.094657	9.792609	-0.003940	-0.000972	-0.004001
16050	13531136	-0.020806	0.070769	9.802653	-0.009222	-0.000094	-0.003976
16051	13531161	-0.012752	0.070685	9.816505	-0.007544	-0.000125	0.000446
16052	13531186	-0.022773	0.079787	9.802653	-0.007272	-0.003026	-0.001368
16053	13531211	-0.012365	0.083806	9.796847	-0.006963	0.001565	-0.002626
16054	13531236	-0.016102	0.083214	9.803100	-0.008002	-0.008668	-0.004925
16055	13531261	-0.015777	0.079784	9.812212	-0.003524	0.004077	-0.003777
16056	13531286	-0.037414	0.062920	9.812313	-0.002599	-0.003211	-0.006191
16057	13531311	-0.028961	0.086726	9.779687	-0.005807	0.001389	-0.003140
16058	13531336	-0.019178	0.062041	9.789700	-0.003974	-0.001808	-0.000413
16059	13531361	-0.031775	0.077346	9.802212	-0.005737	-0.004606	0.003044
16060	13531386	-0.022056	0.080279	9.830935	-0.009073	0.001265	-0.003967
16061	13531411	-0.034944	0.096786	9.804153	-0.002907	0.000593	-0.005978
16062	13531436	-0.046961	0.105692	9.800375	-0.001664	0.000177	-0.000656
16063	13531461	-0.043152	0.094478	9.825289	-0.001004	-0.000337	-0.001690
16064	13531486	-0.046080	0.102480	9.823865	-0.002588	0.000407	-0.006357
16065	13531511	-0.044089	0.107716	9.794142	-0.003944	0.001426	-0.000517
16066	13531536	-0.025257	0.094372	9.782535	-0.001937	0.000289	-0.004701
16067	13531561	-0.012958	0.089504	9.800220	-0.003570	0.001958	0.001466
16068	13531586	-0.020347	0.078711	9.789694	-0.001110	-0.001037	0.001769
16069	13531611	-0.012674	0.072146	9.788233	-0.000468	0.000843	0.001775
16070	13531636	-0.019622	0.080501	9.824694	-0.003900	0.001417	-0.005838
16071	13531661	-0.033273	0.114781	9.803184	-0.003369	-0.000694	-0.002201
16072	13531686	-0.006195	0.084304	9.800644	-0.005133	0.000568	-0.000006
16073	13531711	-0.035151	0.105016	9.821393	-0.006363	-0.001143	-0.002193
16074	13531736	-0.038668	0.095530	9.786911	-0.004308	0.000840	0.001144
16075	13531761	-0.018877	0.094489	9.837134	-0.007847	-0.002652	-0.000659
16076	13531786	-0.013154	0.098619	9.825134	-0.000826	-0.004403	-0.001203
16077	13531811	-0.003768	0.086905	9.791054	-0.004309	-0.001425	-0.001372
16078	13531836	-0.007100	0.116705	9.796345	-0.000776	0.002180	-0.005594
16079	13531861	-0.041141	0.088366	9.816165	-0.008640	0.001989	-0.002043
16080	13531886	-0.034680	0.085263	9.781146	-0.002514	0.000545	-0.000846
16081	13531911	-0.026568	0.076542	9.797408	-0.005920	0.000808	-0.001863
16082	13531936	-0.018446	0.080641	9.789694	0.002763	-0.004201	0.001551
16083	13531961	-0.050296	0.068967	9.805675	-0.005873	-0.000943	-0.005077
16084	13531986	-0.058939	0.067769	9.813394	-0.008580	0.000319	0.000520
16085	13532011	-0.013287	0.069302	9.817476	-0.005622	0.002250	0.004233
16086	13532036	-0.016517	0.066398	9.816533	-0.003457	-0.001921	0.000548
16087	13532061	-0.018193	0.076197	9.827084	-0.003472	0.000530	-0.000784
16088	13532086	-0.057338	0.088206	9.815778	-0.005198	0.002304	-0.004804
16089	13532111	-0.022709	0.070375	9.798344	-0.008543	0.000966	0.000834
16090	13532136	-0.033325	0.074303	9.813740	-0.006083	0.001898	-0.003780
16091	13532161	-0.051210	0.109959	9.790328	-0.009687	0.000085	-0.006917
16092	13532186	-0.043994	0.073661	9.847816	-0.005238	-0.000280	-0.001875
16093	13532211	-0.046296	0.078596	9.831537	-0.005253	-0.000221	-0.004430
16094	13532236	-0.016103	0.077956	9.803106	-0.008547	-0.002716	0.004022
16095	13532261	-0.043635	0.098812	9.816177	-0.005601	-0.001065	-0.003931
16096	13532286	-0.033160	0.064353	9.809901	-0.007357	-0.000453	-0.005974
16097	13532311	-0.042586	0.091256	9.816172	-0.003824	-0.000316	0.000241
16098	13532336	-0.030138	0.084692	9.819473	-0.004129	0.000769	-0.003728
16099	13532361	-0.050698	0.107381	9.782177	-0.001310	0.000893	-0.001429
16100	13532386	-0.039201	0.095875	9.794111	-0.004117	0.000714	0.000565
16101	13532411	-0.015879	0.092684	9.805024	-0.003453	0.003888	-0.002880
16102	13532436	-0.032045	0.096387	9.795035	-0.008260	0.002518	0.001043
16103	13532461	-0.036273	0.095533	9.788818	-0.004198	0.001095	-0.003408
16104	13532486	-0.056591	0.114116	9.798028	-0.005466	0.000824	0.000830
16105	13532511	-0.038713	0.103070	9.787859	-0.007473	-0.002973	-0.005661
16106	13532536	-0.009097	0.083703	9.807380	-0.007053	0.000271	-0.003278
16107	13532561	-0.022901	0.091417	9.787311	-0.007755	0.000519	-0.000134
16108	13532586	-0.017991	0.076954	9.808857	-0.003460	-0.006264	-0.003770
16109	13532611	-0.015043	0.062768	9.808373	-0.003237	0.002848	-0.006095
16110	13532636	0.004506	0.053759	9.821214	-0.008449	-0.000007	-0.001805
16111	13532661	-0.001616	0.055821	9.803035	-0.010884	0.004146	-0.000617
16112	13532686	-0.029009	0.077778	9.803160	-0.008275	0.000446	-0.001408
16113	13532711	-0.038514	0.085007	9.793146	-0.006850	-0.001790	0.000630
16114	13532736	0.000117	0.086675	9.777612	-0.001796	-0.001824	0.002466
16115	13532761	-0.025732	0.085495	9.801704	-0.003229	-0.000952	0.000170
16116	13532786	-0.021372	0.077077	9.797854	-0.004752	0.000373	-0.004825
16117	13532811	-0.011130	0.089155	9.819850	-0.010486	-0.000699	-0.004236
16118	13532836	-0.007871	0.058122	9.805454	-0.007215	0.003497	-0.003520
16119	13532861	-0.033120	0.066269	9.811819	-0.003137	-0.004244	-0.000875
16120	13532886	-0.032205	0.099993	9.812755	-0.002427	0.000028	-0.001304
16121	13532911	-0.059177	0.099897	9.794683	-0.002445	-0.003324	0.001439
16122	13532936	-0.042638	0.100476	9.796039	-0.010951	0.002533	0.000402
16123	13532961	-0.031095	0.090107	9.809410	-0.001845	0.000249	0.003766
16124	13532986	-0.023776	0.052531	9.787805	-0.004806	-0.003879	0.002341
16125	13533011	-0.070327	0.080416	9.786590	-0.006914	-0.004193	-0.003168
16126	13533036	-0.055163	0.097916	9.833969	-0.004913	0.001071	-0.008662
16127	13533061	-0.049953	0.093124	9.781219	-0.002982	-0.003280	-0.005163
16128	13533086	-0.032026	0.090981	9.808929	-0.006282	-0.001718	-0.001495
16129	13533111	-0.028453	0.076572	9.793575	-0.007147	-0.000034	0.006922
16130	13533136	-0.031896	0.069399	9.828102	-0.002132	-0.001124	0.001386
16131	13533161	-0.028260	0.055580	9.800297	-0.003953	0.001755	0.001214
16132	13533186	-0.027409	0.067346	9.808428	-0.003213	-0.003797	-0.000548
16133	13533211	-0.045513	0.058561	9.813314	-0.001448	-0.000797	-0.002907
16134	13533236	-0.034740	0.074771	9.813749	-0.002792	0.001056	-0.003280
16135	13533261	-0.018316	0.068126	9.798325	-0.002038	-0.000545	-0.003034
16136	13533286	-0.036580	0.083651	9.787376	-0.004564	-0.002831	0.006449
16137	13533311	-0.026596	0.087678	9.779193	-0.008780	0.000763	0.002059
16138	13533336	-0.043696	0.109430	9.810429	0.002739	-0.003427	-0.001267
16139	13533361	-0.052229	0.107452	9.801830	-0.004734	-0.000146	-0.004436
16140	13533386	-0.019254	0.093940	9.812702	-0.005931	0.001259	-0.001091
16141	13533411	-0.006162	0.082938	9.795382	-0.008105	-0.000784	-0.001551
16142	13533436	-0.041547	0.094202	9.807535	-0.008139	-0.004077	-0.003485
16143	13533461	-0.021152	0.091259	9.827085	-0.008817	-0.004667	-0.000027
16144	13533486	-0.014977	0.091909	9.825606	-0.005157	-0.002989	-0.001951
16145	13533511	-0.042881	0.099074	9.771597	-0.000502	-0.000197	-0.002840
16146	13533536	-0.017197	0.095271	9.787287	-0.008564	-0.002407	-0.001876
16147	13533561	-0.019999	0.077723	9.816058	-0.007094	-0.000440	-0.001287
16148	13533586	-0.038656	0.082767	9.814240	-0.004844	0.001541	-0.000063
16149	13533611	-0.037109	0.076270	9.809929	-0.001222	0.000182	-0.001238
16150	13533636	-0.016342	0.059953	9.806931	-0.002797	-0.006884	0.000137
16151	13533661	-0.031867	0.073296	9.816601	-0.007270	-0.000896	-0.002959
16152	13533686	-0.039473	0.112204	9.813280	-0.004685	0.000048	-0.005776
16153	13533711	-0.038990	0.067021	9.819520	-0.004561	0.002776	-0.000060
16154	13533736	-0.029042	0.076728	9.814193	-0.006364	0.001067	-0.000063
16155	13533761	-0.015145	0.071349	9.810299	0.001317	-0.001267	-0.005037
16156	13533786	-0.034597	0.099911	9.815657	-0.001140	-0.000133	-0.000794
16157	13533811	-0.031619	0.071841	9.788330	-0.007787	-0.002973	-0.002326
16158	13533836	-0.035346	0.086283	9.803672	-0.006133	0.001980	0.003272
16159	13533861	-0.021071	0.057082	9.799303	-0.006385	-0.000690	-0.001742
16160	13533886	-0.018964	0.074971	9.809823	-0.007780	-0.003032	-0.000790
16161	13533911	-0.020730	0.062342	9.801208	-0.003813	0.000905	-0.005338
16162	13533936	-0.009684	0.054772	9.813631	0.001989	-0.000347	-0.003311
16163	13533961	-0.025335	0.079070	9.818488	-0.002734	0.001837	0.002626
16164	13533986	-0.005173	0.086921	9.787221	-0.003429	-0.001019	-0.000407
16165	13534011	-0.030947	0.091860	9.787351	-0.001349	-0.001691	0.000805
16166	13534036	-0.030048	0.086528	9.794540	-0.003646	0.002278	0.002562
16167	13534061	0.007966	0.057506	9.798670	-0.003912	0.000136	-0.001489
16168	13534086	-0.028632	0.081348	9.823294	-0.004861	-0.002274	-0.001690
16169	13534111	-0.001661	0.093010	9.825070	-0.007635	-0.003743	-0.002910
16170	13534136	-0.000274	0.090139	9.829857	-0.003460	0.002405	-0.000004
16171	13534161	-0.000825	0.062188	9.825076	-0.006707	-0.000896	-0.006877
16172	13534186	-0.012756	0.075241	9.803557	-0.001879	-0.001444	-0.001501
16173	13534211	-0.038584	0.082574	9.798426	-0.003003	0.002024	-0.001097
16174	13534236	-0.030251	0.102511	9.803165	-0.003281	-0.001147	0.001195
16175	13534261	-0.020565	0.082335	9.826614	-0.005218	-0.001183	-0.002515
16176	13534286	-0.034510	0.097574	9.813251	-0.003082	-0.001793	-0.002782
16177	13534311	-0.017462	0.076404	9.785378	-0.002068	0.000615	-0.003287
16178	13534336	0.011405	0.077691	9.816862	-0.003549	0.002784	-0.002311
16179	13534361	-0.018156	0.087042	9.802145	-0.003122	-0.000498	-0.002460
16180	13534386	-0.021801	0.078902	9.799292	-0.006922	-0.003991	-0.002399
16181	13534411	-0.031494	0.055713	9.790241	-0.004616	0.000186	-0.001165
16182	13534436	-0.012367	0.090555	9.793498	-0.003758	-0.002709	-0.000350
16183	13534461	-0.043168	0.107027	9.803708	-0.007498	-0.001612	-0.001039
16184	13534486	-0.013832	0.082794	9.800698	-0.007647	0.002775	-0.005184
16185	13534511	-0.021995	0.090149	9.814149	-0.001086	-0.004342	-0.002158
16186	13534536	-0.056317	0.080604	9.818168	-0.004353	0.004196	-0.001848
16187	13534561	-0.039681	0.086046	9.819031	-0.002378	-0.001647	-0.002272
16188	13534586	-0.009068	0.054198	9.783899	-0.003688	0.003237	-0.003460
16189	13534611	-0.031525	0.081983	9.810364	-0.003283	0.002931	0.001922
16190	13534636	-0.038383	0.099698	9.823818	-0.004725	-0.004467	-0.001253
16191	13534661	-0.060828	0.108257	9.804275	-0.005674	-0.001006	-0.007197
16192	13534686	-0.051306	0.071348	9.801848	-0.010164	0.001641	-0.001910
16193	13534711	-0.027079	0.066172	9.819468	-0.008784	0.004636	-0.003183
16194	13534736	-0.028509	0.073276	9.825212	-0.003450	-0.004646	-0.003952
16195	13534761	-0.011555	0.089291	9.812654	-0.004008	-0.003035	-0.002979
16196	13534786	-0.037991	0.075463	9.796985	-0.005217	0.001411	0.001153
16197	13534811	-0.033441	0.095388	9.799833	-0.005248	-0.002092	-0.002842
16198	13534836	-0.036697	0.081349	9.819013	-0.001194	-0.004658	0.000472
16199	13534861	-0.017190	0.092371	9.791602	-0.006746	0.000729	-0.001605
16200	13534886	-0.022340	0.109006	9.817984	-0.007255	0.000985	0.001091
16201	13534911	-0.014881	0.060118	9.795899	-0.004323	-0.003304	-0.004777
16202	13534936	-0.003919	0.058130	9.805913	-0.008138	-0.006208	-0.002860
16203	13534961	-0.015310	0.085880	9.819383	-0.001650	-0.006410	0.001292
16204	13534986	-0.021486	0.073753	9.829493	-0.006123	-0.000551	-0.001363
16205	13535011	-0.038261	0.086079	9.808971	-0.009824	0.005397	0.001317
16206	13535036	-0.018510	0.079857	9.798320	-0.011002	-0.000113	0.000456
16207	13535061	-0.021022	0.089279	9.806479	-0.004975	-0.002472	-0.000027
16208	13535086	-0.010172	0.060153	9.797329	-0.004870	0.000115	-0.003029
16209	13535111	-0.031320	0.090040	9.779216	-0.002144	-0.004938	0.001109
16210	13535136	-0.021782	0.073146	9.805538	-0.006332	-0.000165	-0.001995
16211	13535161	-0.017057	0.070297	9.813166	-0.003204	0.000146	-0.000913
16212	13535186	-0.013647	0.071428	9.800692	-0.003994	-0.001357	-0.003298
16213	13535211	-0.013083	0.058862	9.815068	-0.005734	-0.002672	0.002094
16214	13535236	-0.041246	0.079401	9.785487	-0.003818	-0.002711	-0.000733
16215	13535261	-0.027409	0.079678	9.777756	-0.004444	-0.003302	-0.001442
16216	13535286	-0.023316	0.083366	9.791642	-0.001357	0.002638	0.000630
16217	13535311	-0.059418	0.087211	9.788455	-0.001305	-0.005436	0.000274
16218	13535336	-0.020651	0.094460	9.810300	-0.005618	-0.002812	-0.005668
16219	13535361	-0.026623	0.110393	9.818490	-0.003411	0.000590	-0.003152
16220	13535386	-0.027960	0.082412	9.782071	-0.007421	-0.002521	-0.005665
16221	13535411	-0.038784	0.088683	9.829576	-0.007369	-0.000058	-0.003463
16222	13535436	-0.032391	0.084068	9.797909	-0.005037	-0.000402	-0.000145
16223	13535461	-0.016824	0.094567	9.803589	-0.006869	0.000860	0.000256
16224	13535486	-0.049392	0.119120	9.786476	-0.005597	-0.001127	-0.003222
16225	13535511	-0.051294	0.117218	9.783139	-0.008534	0.002834	-0.001845
16226	13535536	-0.025301	0.090708	9.803631	-0.003588	-0.001989	-0.000857
16227	13535561	-0.029541	0.083516	9.804596	-0.004230	-0.001682	-0.000279
16228	13535586	-0.000391	0.068951	9.818353	-0.005332	0.000364	-0.003536
16229	13535611	-0.001805	0.075739	9.807833	-0.004901	-0.002986	-0.001696
16230	13535636	-0.018214	0.090282	9.806461	-0.004680	0.000452	0.000314
16231	13535661	-0.013628	0.060847	9.812194	-0.004035	0.000322	-0.001812
16232	13535686	-0.014052	0.071664	9.783437	-0.004824	0.000568	-0.004826
16233	13535711	0.003017	0.063336	9.813555	-0.006820	0.000651	-0.007127
16234	13535736	-0.017166	0.075857	9.818442	-0.007358	-0.000246	-0.001545
16235	13535761	-0.021207	0.105399	9.805997	-0.006321	-0.002684	-0.000918
16236	13535786	-0.038001	0.076411	9.794582	-0.010286	0.001308	-0.003327
16237	13535811	-0.016598	0.064969	9.819412	-0.000463	0.002323	-0.005077
16238	13535836	-0.034669	0.074406	9.810389	-0.002830	-0.001593	-0.001371
16239	13535861	-0.030046	0.084913	9.804125	-0.006051	-0.001007	-0.002775
16240	13535886	-0.020841	0.081358	9.794505	-0.008841	-0.000153	-0.004552
16241	13535911	-0.033474	0.082665	9.824278	-0.005852	-0.003462	-0.005607
16242	13535936	-0.036689	0.077971	9.818543	-0.007701	-0.001092	0.000891
16243	13535961	-0.013032	0.091593	9.815545	-0.005633	0.000370	0.001857
16244	13535986	-0.031347	0.084658	9.788306	-0.008924	-0.001444	-0.003728
16245	13536011	-0.009526	0.044086	9.822726	-0.004032	-0.008468	-0.002757
16246	13536036	-0.013259	0.063041	9.821303	-0.006893	0.003503	-0.002879
16247	13536061	-0.027234	0.084280	9.818973	-0.004655	-0.002654	-0.000477
16248	13536086	-0.017503	0.066561	9.810310	0.000517	0.001828	-0.002648
16249	13536111	-0.032376	0.082158	9.796001	-0.005654	0.002885	-0.000444
16250	13536136	-0.037062	0.111306	9.804162	-0.012425	0.002971	0.005159
16251	13536161	-0.052001	0.088897	9.804709	-0.006966	-0.002110	0.002293
16252	13536186	-0.013618	0.084330	9.828496	-0.002114	0.006498	-0.000051
16253	13536211	-0.023462	0.089185	9.809364	-0.004184	0.001296	0.003526
16254	13536236	-0.033998	0.086128	9.818053	-0.002183	0.004029	-0.007434
16255	13536261	-0.047427	0.119222	9.785992	-0.000699	-0.004472	-0.004146
16256	13536286	-0.002193	0.101334	9.805902	-0.007047	0.002143	-0.003271
16257	13536311	-0.016988	0.073430	9.791125	-0.006691	0.002921	-0.005315
16258	13536336	-0.017374	0.073543	9.782971	-0.005725	-0.001250	0.000305
16259	13536361	-0.036703	0.087345	9.796967	-0.003642	-0.000052	0.000887
16260	13536386	-0.021922	0.084648	9.796901	-0.005703	0.000502	0.003840
16261	13536411	-0.036725	0.095996	9.788342	-0.006475	-0.001594	-0.001103
16262	13536436	-0.024139	0.081981	9.783490	-0.004369	-0.003423	0.001828
16263	13536461	0.017644	0.079420	9.802938	-0.001578	-0.000536	-0.000158
16264	13536486	-0.051066	0.096251	9.794159	-0.002854	-0.000882	-0.001751
16265	13536511	-0.034257	0.092299	9.783538	-0.004558	-0.001623	-0.001688
16266	13536536	-0.018666	0.062650	9.781069	-0.003174	-0.000821	-0.000151
16267	13536561	-0.039051	0.088866	9.785970	-0.005783	0.002553	-0.004610
16268	13536586	-0.008107	0.078938	9.808816	-0.004973	0.001474	-0.002313
16269	13536611	-0.022660	0.062111	9.811296	-0.007392	0.000650	-0.003527
16270	13536636	-0.038164	0.077901	9.823825	-0.004467	-0.000261	-0.000076
16271	13536661	-0.030498	0.086908	9.797420	-0.006862	0.000668	0.001156
16272	13536686	-0.038355	0.092078	9.830057	-0.002143	-0.001267	-0.004384
16273	13536711	-0.025740	0.090425	9.789242	-0.005656	0.000815	-0.002059
16274	13536736	-0.015375	0.091584	9.816040	-0.003351	-0.001080	0.001197
16275	13536761	-0.029607	0.088327	9.801733	-0.001286	-0.001620	0.002794
16276	13536786	-0.020389	0.072758	9.805518	-0.002983	-0.000823	-0.003165
16277	13536811	-0.042055	0.088434	9.812345	-0.003935	0.001109	-0.002187
16278	13536836	-0.032060	0.088154	9.805109	-0.009052	0.004752	-0.004400
16279	13536861	-0.026291	0.086193	9.816093	-0.008073	0.000189	-0.001666
16280	13536886	-0.030663	0.088889	9.823783	-0.005309	-0.002080	0.001200
16281	13536911	-0.028674	0.095136	9.791655	-0.001398	-0.000344	-0.004320
16282	13536936	-0.030161	0.097409	9.796460	-0.003487	0.000453	-0.006747
16283	13536961	-0.033274	0.079134	9.802230	-0.010584	-0.001079	0.001094
16284	13536986	-0.011413	0.071087	9.823688	-0.007682	-0.002004	-0.001815
16285	13537011	-0.009796	0.068058	9.805949	-0.006261	-0.002824	-0.006180
16286	13537036	-0.038664	0.080371	9.817601	-0.004345	0.001870	-0.002246
16287	13537061	-0.047404	0.075914	9.791757	-0.001864	-0.004166	-0.004402
16288	13537086	-0.027088	0.074892	9.811785	-0.005853	-0.001328	-0.004058
16289	13537111	-0.036157	0.079779	9.794581	-0.004949	0.002965	0.000456
16290	13537136	-0.048906	0.075706	9.803262	-0.004029	-0.006323	0.000085
16291	13537161	-0.030367	0.075995	9.799343	-0.003420	0.000654	-0.003088
16292	13537186	-0.030462	0.086515	9.794545	-0.002453	-0.001590	-0.004072
16293	13537211	-0.017652	0.089343	9.800227	-0.009649	-0.000878	-0.004299
16294	13537236	-0.012449	0.084516	9.812183	-0.008394	-0.001821	-0.002195
16295	13537261	-0.012788	0.079547	9.798765	-0.002018	-0.002803	0.000799
16296	13537286	-0.039958	0.070834	9.818085	-0.006585	-0.000037	0.001082
16297	13537311	-0.025418	0.054414	9.815617	-0.005540	-0.003317	-0.002724
16298	13537336	-0.029074	0.084832	9.808429	-0.006932	-0.003730	-0.002335
16299	13537361	-0.020480	0.081726	9.805518	-0.002591	-0.001273	-0.005159
16300	13537386	-0.007253	0.039354	9.821761	-0.007905	0.003369	0.002450
16301	13537411	-0.043121	0.072569	9.795572	-0.006554	-0.001599	-0.003028
16302	13537436	-0.030341	0.082785	9.788783	-0.005338	-0.003573	-0.002082
16303	13537461	-0.019091	0.086416	9.809335	-0.006025	-0.005846	0.000729
16304	13537486	-0.034073	0.088757	9.830994	-0.002177	0.002035	-0.003281
16305	13537511	-0.015213	0.085095	9.805490	-0.007884	-0.003819	-0.001626
16306	13537536	-0.032365	0.092387	9.781124	-0.004143	-0.000519	-0.000277
16307	13537561	-0.009161	0.095238	9.803545	0.001048	-0.002947	-0.003506
16308	13537586	-0.030829	0.110045	9.807475	-0.003275	-0.001667	-0.002721
16309	13537611	-0.011428	0.071081	9.827526	-0.004740	0.000052	-0.002706
16310	13537636	-0.040010	0.082328	9.806576	-0.010592	-0.001085	-0.000322
16311	13537661	-0.035660	0.074773	9.812303	-0.004897	-0.001049	-0.002328
16312	13537686	-0.033135	0.072761	9.792640	-0.005277	-0.001448	-0.005275
16313	13537711	-0.017514	0.075640	9.802635	-0.004555	0.000317	-0.001228
16314	13537736	-0.046831	0.081630	9.820993	-0.006236	0.000928	-0.003663
16315	13537761	-0.013439	0.088403	9.806927	-0.006658	0.002353	-0.000122
16316	13537786	-0.048765	0.099513	9.796073	-0.006424	0.000803	-0.001220
16317	13537811	-0.036077	0.080741	9.792174	-0.007504	-0.001809	-0.003091
16318	13537836	-0.028077	0.082917	9.813698	-0.006519	-0.006701	-0.002931
16319	13537861	-0.012497	0.093302	9.798771	-0.003022	0.000341	-0.004250
16320	13537886	0.006479	0.058403	9.798672	-0.007203	0.001244	0.001214
16321	13537911	-0.020954	0.085077	9.802164	-0.003736	0.000586	-0.003023
16322	13537936	-0.036269	0.093504	9.796484	-0.005503	-0.004154	-0.000995
16323	13537961	-0.039110	0.085362	9.800829	-0.005744	0.003523	-0.003451
16324	13537986	-0.014378	0.083972	9.814115	-0.007994	-0.000194	-0.001930
16325	13538011	-0.026164	0.083922	9.808416	-0.006855	-0.006182	-0.000425
16326	13538036	-0.043970	0.086889	9.821445	-0.003043	-0.002687	0.001319
16327	13538061	-0.036880	0.075201	9.784510	-0.004458	-0.005043	-0.002089
16328	13538086	-0.045325	0.085546	9.813304	-0.005560	-0.002080	0.002995
16329	13538111	-0.015754	0.093045	9.782966	-0.005499	0.001980	0.000450
16330	13538136	-0.013291	0.086287	9.792538	-0.003771	-0.002256	-0.002207
16331	13538161	-0.016201	0.082647	9.805979	-0.008035	-0.000975	-0.001614
16332	13538186	-0.017196	0.096689	9.791602	-0.004184	-0.003424	-0.001249
16333	13538211	-0.016682	0.071959	9.826589	-0.003707	-0.000055	-0.001878
16334	13538236	-0.007519	0.059627	9.831818	-0.007346	0.002086	0.003020
16335	13538261	-0.021873	0.082348	9.794976	-0.004207	-0.000584	-0.003035
16336	13538286	-0.034456	0.093723	9.812774	-0.006524	-0.002497	-0.002778
16337	13538311	-0.024962	0.054527	9.813696	-0.002146	-0.001267	-0.006314
16338	13538336	-0.030159	0.058337	9.805084	-0.004786	-0.002460	0.000168
16339	13538361	-0.016909	0.063684	9.807892	-0.005746	-0.002222	0.001965
16340	13538386	-0.019940	0.083943	9.782023	-0.005527	0.000550	-0.005528
16341	13538411	-0.010737	0.097844	9.811224	-0.007401	0.001565	-0.000061
16342	13538436	-0.027941	0.081598	9.780157	-0.001495	0.001155	0.002359
16343	13538461	-0.008562	0.072557	9.822233	-0.007291	-0.001787	0.005241
16344	13538486	-0.029290	0.093601	9.827127	-0.005908	-0.005333	-0.000036
16345	13538511	-0.017157	0.090401	9.796871	-0.008802	-0.003316	-0.003675
16346	13538536	-0.017359	0.075412	9.781529	-0.007549	-0.002652	-0.005855
16347	13538561	-0.004056	0.062478	9.800161	-0.008740	0.001353	0.001347
16348	13538586	-0.002214	0.068623	9.807343	-0.004123	-0.000836	0.001585
16349	13538611	-0.034015	0.062679	9.795536	-0.006372	0.001392	0.000064
16350	13538636	-0.027711	0.074452	9.835752	-0.009683	-0.001717	-0.004625
16351	13538661	-0.020402	0.065310	9.825653	-0.002383	0.002089	-0.007316
16352	13538686	-0.010218	0.058599	9.807867	-0.002863	-0.000417	0.001839
16353	13538711	-0.054194	0.082939	9.790827	-0.002687	-0.004637	-0.007485
16354	13538736	-0.014481	0.069642	9.795904	-0.001232	-0.004028	-0.004531
16355	13538761	-0.023427	0.061070	9.786369	-0.005883	-0.000155	-0.000903
16356	13538786	-0.027604	0.079780	9.805078	-0.000298	-0.000446	0.001448
16357	13538811	-0.018508	0.069133	9.819414	-0.008823	-0.000472	-0.003470
16358	13538836	-0.044754	0.080933	9.808993	-0.001119	-0.001636	-0.006762
16359	13538861	-0.041474	0.078498	9.808023	-0.008328	0.002518	0.002833
16360	13538886	-0.050409	0.092634	9.779300	-0.007440	-0.003870	-0.001881
16361	13538911	-0.047459	0.103064	9.811403	-0.007699	-0.001416	-0.000973
16362	13538936	-0.041504	0.093002	9.794118	-0.006278	0.000286	-0.000001
16363	13538961	-0.044256	0.086757	9.798450	-0.003797	-0.003152	0.001961
16364	13538986	-0.046643	0.091165	9.788873	-0.003920	-0.003542	0.000612
16365	13539011	-0.029436	0.074923	9.805091	-0.007291	-0.000378	-0.001031
16366	13539036	-0.041544	0.085659	9.809465	-0.005530	0.002618	-0.005764
16367	13539061	-0.059641	0.086326	9.811945	-0.005333	-0.001180	-0.000018
16368	13539086	-0.055755	0.085397	9.814312	-0.004312	-0.005305	-0.000936
16369	13539111	-0.028175	0.093137	9.799321	-0.004183	-0.001493	-0.003488
16370	13539136	-0.028277	0.092433	9.813221	-0.003980	-0.001422	-0.000280
16371	13539161	-0.020012	0.074669	9.829475	-0.008155	-0.005233	0.001124
16372	13539186	-0.034296	0.076714	9.810866	-0.005266	0.000967	0.004545
16373	13539211	-0.020781	0.070470	9.798807	-0.001961	-0.000346	0.001709
16374	13539236	-0.003002	0.079695	9.826525	-0.005426	0.002120	0.003465
16375	13539261	-0.006986	0.070985	9.803541	-0.005749	-0.000215	0.001208
16376	13539286	-0.049422	0.074183	9.809507	-0.004175	-0.001553	-0.001107
16377	13539311	-0.017964	0.105815	9.815568	-0.002223	-0.000545	-0.000596
16378	13539336	-0.022525	0.097496	9.797365	-0.002649	-0.003134	0.001632
16379	13539361	-0.025597	0.077873	9.805543	-0.002663	-0.005281	-0.005817
16380	13539386	-0.034764	0.094172	9.784026	-0.005497	-0.000678	-0.004753
16381	13539411	-0.016985	0.076363	9.787287	-0.004230	0.000396	0.000881
16382	13539436	-0.044512	0.099019	9.802289	-0.005431	0.002182	0.001670
16383	13539461	-0.021496	0.086367	9.809346	-0.006336	-0.002111	-0.002202
16384	13539486	-0.027897	0.105001	9.800762	0.000554	0.001319	0.002998
16385	13539511	-0.031797	0.111399	9.806998	-0.004968	-0.002466	0.002731
16386	13539536	-0.038070	0.115675	9.803207	-0.006296	0.002934	-0.001720
16387	13539561	-0.034797	0.082532	9.803195	-0.004226	0.000262	0.001463
16388	13539586	-0.029339	0.079609	9.780641	-0.004609	0.000316	0.001596
16389	13539611	-0.048792	0.069209	9.792717	-0.006980	-0.004186	-0.002976
16390	13539636	-0.042119	0.096011	9.814729	-0.003627	-0.002831	-0.001566
16391	13539661	-0.020436	0.067093	9.826608	-0.010115	0.000161	0.001219
16392	13539686	-0.015599	0.070689	9.814121	-0.007357	-0.002453	-0.003485
16393	13539711	-0.024094	0.068968	9.796913	-0.007579	0.000779	-0.001416
16394	13539736	-0.040949	0.083543	9.790768	-0.007501	0.004660	-0.001132
16395	13539761	-0.034706	0.078803	9.799361	-0.002930	0.000226	0.004543
16396	13539786	-0.039401	0.072756	9.815200	-0.006184	-0.007206	-0.001585
16397	13539811	-0.053078	0.096802	9.812864	-0.009055	-0.001256	-0.003791
16398	13539836	-0.025199	0.098172	9.843399	-0.003980	-0.001550	-0.002334
16399	13539861	-0.054889	0.091268	9.822888	-0.001638	-0.002733	-0.000739
16400	13539886	-0.059087	0.104023	9.796513	-0.002402	-0.002877	-0.000678
16401	13539911	-0.029189	0.083877	9.771450	-0.006256	-0.002947	-0.004262
16402	13539936	-0.024807	0.071792	9.785814	-0.009093	-0.002213	-0.001298
16403	13539961	-0.035175	0.061353	9.785867	-0.002114	-0.002098	-0.002792
16404	13539986	-0.027534	0.078001	9.818890	-0.004052	-0.001350	0.000037
16405	13540011	-0.027469	0.083829	9.807873	-0.001633	-0.001377	-0.003494
16406	13540036	-0.039064	0.095694	9.796418	-0.006129	0.001386	-0.002895
16407	13540061	-0.032924	0.100957	9.799273	-0.005148	0.003085	0.000259
16408	13540086	-0.036053	0.098786	9.781547	-0.007443	-0.003219	0.001131
16409	13540111	-0.010828	0.074410	9.821695	0.000934	-0.001064	0.001122
16410	13540136	-0.018389	0.070835	9.829396	-0.002611	-0.002882	-0.003372
16411	13540161	-0.027156	0.104477	9.793003	-0.004776	-0.003177	-0.003046
16412	13540186	-0.009378	0.063216	9.836549	-0.003424	0.001052	0.001456
16413	13540211	-0.024625	0.086874	9.799231	-0.001916	-0.000149	-0.001238
16414	13540236	-0.018985	0.085738	9.815491	-0.001572	-0.003123	-0.002414
16415	13540261	-0.039279	0.072642	9.813203	-0.009157	-0.001960	-0.000462
16416	13540286	-0.035937	0.083613	9.785384	-0.001949	-0.001450	-0.004588
16417	13540311	-0.025406	0.075596	9.790606	-0.003928	0.000322	-0.003093
16418	13540336	0.006599	0.057185	9.807688	-0.004356	0.001866	-0.004819
16419	13540361	-0.030597	0.097020	9.811725	-0.005282	0.003476	0.000131
16420	13540386	0.000764	0.071892	9.807253	-0.002573	-0.001520	-0.000992
16421	13540411	-0.034608	0.078010	9.811747	-0.003175	-0.000685	-0.000215
16422	13540436	-0.027280	0.098048	9.807879	-0.003965	0.004339	0.001416
16423	13540461	-0.002645	0.068280	9.817810	-0.006440	0.003059	-0.004165
16424	13540486	-0.008447	0.075263	9.821190	-0.006314	-0.000413	0.004216
16425	13540511	-0.027246	0.067369	9.798284	-0.006430	-0.001197	-0.000663
16426	13540536	-0.036641	0.083639	9.813190	-0.003594	0.002538	0.001726
16427	13540561	-0.061229	0.103509	9.826727	-0.004888	-0.001101	0.000107
16428	13540586	-0.064734	0.099718	9.795589	-0.002208	-0.002998	0.000866
16429	13540611	-0.060434	0.088608	9.806599	-0.008017	0.000256	-0.002564
16430	13540636	-0.033890	0.105245	9.798797	-0.003579	-0.000574	-0.003675
16431	13540661	-0.024684	0.080059	9.808815	-0.003965	0.003946	-0.002562
16432	13540686	-0.042142	0.082095	9.784937	-0.003545	0.002202	-0.007251
16433	13540711	-0.039716	0.095766	9.819431	-0.007579	0.003251	0.004497
16434	13540736	-0.033725	0.092489	9.793045	-0.005591	-0.002852	0.005870
16435	13540761	-0.050130	0.090276	9.832432	-0.006549	0.000012	-0.008535
16436	13540786	-0.022742	0.091087	9.801610	-0.006606	-0.004050	-0.003625
16437	13540811	-0.033827	0.085558	9.817487	-0.002848	0.000992	-0.002968
16438	13540836	0.002508	0.086641	9.805793	-0.001244	-0.003374	-0.003187
16439	13540861	-0.020860	0.090652	9.799679	-0.006576	-0.003019	-0.005351
16440	13540886	-0.016838	0.072327	9.790565	-0.008182	0.003615	-0.001401
16441	13540911	-0.033867	0.071862	9.777225	-0.006478	0.000483	-0.000842
16442	13540936	-0.015990	0.074341	9.815474	-0.006466	-0.004235	-0.001000
16443	13540961	-0.013582	0.079332	9.803958	-0.005414	-0.003251	-0.002339
16444	13540986	-0.001556	0.068158	9.801024	-0.000741	-0.000972	-0.002600
16445	13541011	-0.025716	0.093030	9.801155	-0.000748	0.001280	-0.003871
16446	13541036	-0.010997	0.062895	9.794844	-0.003414	0.000471	-0.001623
16447	13541061	0.019961	0.062227	9.795655	-0.009732	0.000033	0.000440
16448	13541086	-0.039234	0.110736	9.803602	-0.009361	-0.001636	-0.000523
16449	13541111	-0.015642	0.086864	9.806358	-0.002351	-0.000414	0.000933
16450	13541136	0.005850	0.047880	9.796208	-0.005123	0.002313	0.001343
16451	13541161	-0.027835	0.076931	9.790619	-0.006351	0.002681	0.000003
16452	13541186	-0.010238	0.063832	9.829844	0.000300	-0.001277	0.000407
16453	13541211	-0.019230	0.067172	9.816928	-0.004709	-0.005051	-0.001134
16454	13541236	-0.023284	0.057057	9.791549	-0.005949	-0.000151	-0.000143
16455	13541261	-0.014365	0.096787	9.808757	-0.004804	-0.000012	-0.002775
16456	13541286	-0.028892	0.078442	9.815057	-0.005969	-0.001909	-0.003229
16457	13541311	-0.021418	0.092028	9.802093	-0.007592	0.001563	0.002374
16458	13541336	-0.015984	0.079250	9.803976	-0.004640	-0.002976	0.000672
16459	13541361	-0.027517	0.080932	9.811706	-0.002649	0.002807	-0.001289
16460	13541386	-0.032333	0.086149	9.805502	-0.005713	0.002296	-0.004943
16461	13541411	-0.017426	0.083058	9.802063	-0.008085	-0.003755	-0.002851
16462	13541436	-0.030900	0.086791	9.803099	0.001019	0.002222	-0.002396
16463	13541461	-0.035949	0.075325	9.803123	0.001089	-0.000231	-0.003368
16464	13541486	-0.031156	0.071970	9.804535	-0.002749	-0.002432	-0.004013
16465	13541511	-0.019825	0.086462	9.795363	-0.008552	-0.000976	-0.000910
16466	13541536	-0.020685	0.111009	9.803035	-0.003360	-0.003082	-0.001390
16467	13541561	-0.014339	0.078247	9.778090	-0.006916	-0.002570	-0.004382
16468	13541586	-0.011801	0.089920	9.792449	-0.007047	0.000477	0.002880
16469	13541611	-0.010332	0.081875	9.794362	-0.005499	0.003988	-0.000891
16470	13541636	-0.025388	0.098073	9.809287	-0.004616	0.004189	-0.004674
16471	13541661	-0.030492	0.092826	9.803565	-0.008364	0.001086	-0.004235
16472	13541686	-0.033802	0.080693	9.824204	-0.002661	0.003125	-0.002445
16473	13541711	-0.022992	0.067869	9.798260	-0.007887	0.000323	-0.002833
16474	13541736	-0.022821	0.089127	9.807362	-0.003885	0.001621	0.000057
16475	13541761	-0.012978	0.069573	9.793425	-0.000867	0.001293	-0.000729
16476	13541786	-0.031287	0.087655	9.799745	-0.005336	-0.001702	-0.004320
16477	13541811	-0.015968	0.072908	9.815480	-0.006075	-0.000487	-0.002067
16478	13541836	-0.030415	0.087067	9.811242	-0.003769	-0.002512	-0.003172
16479	13541861	-0.048386	0.104573	9.831937	-0.003554	-0.000763	0.000495
16480	13541886	-0.039065	0.096430	9.811266	-0.003330	-0.006062	-0.000823
16481	13541911	-0.021988	0.073276	9.787710	-0.004704	-0.003169	0.000545
16482	13541936	-0.045925	0.108288	9.803644	-0.008333	0.000182	-0.004880
16483	13541961	-0.043018	0.105965	9.801706	-0.010458	0.000791	-0.001018
16484	13541986	-0.042330	0.081144	9.816099	-0.004181	0.002848	-0.001411
16485	13542011	-0.027076	0.084330	9.804506	-0.007488	0.001808	-0.004493
16486	13542036	-0.005808	0.069256	9.784277	-0.007239	0.003947	-0.004928
16487	13542061	-0.005309	0.077007	9.778995	-0.000559	-0.002782	-0.002030
16488	13542086	-0.027517	0.090129	9.797800	-0.002663	-0.002484	0.004196
16489	13542111	-0.042338	0.131686	9.799303	-0.005759	-0.000219	-0.001484
16490	13542136	-0.019715	0.068159	9.815497	-0.006978	-0.002311	-0.002651
16491	13542161	-0.033318	0.084513	9.821796	-0.002900	0.000410	-0.003414
16492	13542186	-0.027580	0.091127	9.795398	-0.003013	0.002483	-0.000781
16493	13542211	-0.010295	0.071001	9.821691	-0.006087	0.000034	-0.001487
16494	13542236	-0.031136	0.100614	9.822740	-0.006241	-0.001334	-0.005281
16495	13542261	-0.045487	0.098376	9.830959	-0.006604	0.000347	-0.001805
16496	13542286	-0.026371	0.074426	9.798755	-0.008631	-0.002341	-0.000146
16497	13542311	-0.030091	0.104933	9.788699	-0.006595	0.002028	-0.000900
16498	13542336	-0.014836	0.062532	9.810205	-0.009441	-0.003389	-0.002843
16499	13542361	-0.014109	0.078319	9.807319	-0.003715	0.000009	-0.002652
16500	13542386	-0.038960	0.090942	9.799785	-0.001781	-0.002608	-0.004338
16501	13542411	-0.019871	0.075169	9.815981	-0.010386	0.002608	0.000203
16502	13542436	-0.050683	0.095188	9.823806	-0.003196	0.004160	-0.000319
16503	13542461	-0.039113	0.084415	9.819438	-0.006643	0.005576	-0.004728
16504	13542486	-0.036076	0.088731	9.789713	-0.007170	0.002348	0.001028
16505	13542511	-0.026358	0.092541	9.826077	-0.008050	0.001751	0.000449
16506	13542536	-0.061937	0.100678	9.797497	-0.002930	-0.000167	0.001012
16507	13542561	-0.015348	0.067546	9.797276	-0.002579	0.000480	-0.000404
16508	13542586	-0.036941	0.080918	9.803600	-0.005624	-0.004485	-0.001514
16509	13542611	-0.052760	0.083811	9.817572	-0.007023	-0.004691	0.000866
16510	13542636	-0.041249	0.108812	9.808886	-0.002533	0.001322	-0.001046
16511	13542661	-0.060823	0.083815	9.812827	-0.002670	-0.003080	-0.004330
16512	13542686	-0.039721	0.086426	9.781565	-0.006366	-0.005066	0.003426
16513	13542711	-0.046847	0.102826	9.820892	-0.004043	-0.004001	-0.002153
16514	13542736	-0.056736	0.085568	9.823842	-0.005598	0.003082	-0.001279
16515	13542761	-0.031820	0.062767	9.781058	-0.009111	-0.001575	-0.001743
16516	13542786	-0.010692	0.078092	9.792455	-0.006180	-0.001006	-0.001048
16517	13542811	-0.023997	0.074103	9.789647	-0.009385	0.003666	0.003287
16518	13542836	-0.054610	0.076802	9.811832	-0.004573	-0.000969	0.001840
16519	13542861	-0.027904	0.088606	9.775764	-0.004232	0.004263	-0.002626
16520	13542886	-0.028931	0.094490	9.789170	-0.007604	-0.002778	-0.004317
16521	13542911	-0.005560	0.077765	9.817346	-0.005870	-0.003004	-0.003624
16522	13542936	-0.030471	0.087452	9.810760	-0.010669	0.001244	-0.002627
16523	13542961	-0.021651	0.074426	9.805449	-0.008596	0.000574	-0.000513
16524	13542986	-0.019221	0.076166	9.791059	-0.000837	-0.000075	-0.002402
16525	13543011	-0.012847	0.082342	9.819301	-0.009559	0.002751	-0.000952
16526	13543036	-0.020988	0.091441	9.808321	-0.008693	0.003670	-0.002551
16527	13543061	-0.032385	0.108946	9.770973	-0.007303	0.002274	-0.001085
16528	13543086	-0.007434	0.084333	9.793388	-0.002493	-0.000232	-0.003043
16529	13543111	-0.031523	0.095956	9.816988	-0.005406	-0.001311	-0.002778
16530	13543136	-0.040256	0.078563	9.798349	-0.007135	-0.001015	0.000687
16531	13543161	-0.022878	0.101632	9.798736	0.000238	-0.003606	-0.000755
16532	13543186	-0.035307	0.095927	9.813173	-0.007547	-0.002317	-0.001623
16533	13543211	-0.035309	0.105378	9.787292	-0.005464	0.000687	-0.001745
16534	13543236	-0.015105	0.088913	9.793915	-0.004110	-0.001676	-0.002147
16535	13543261	-0.025212	0.096076	9.785807	-0.001960	0.003140	-0.001228
16536	13543286	-0.022621	0.073681	9.799224	0.002114	0.003920	-0.003737
16537	13543311	-0.014950	0.064504	9.809714	-0.004144	0.001487	-0.001490
16538	13543336	-0.026282	0.056639	9.817447	-0.005476	-0.001119	-0.003037
16539	13543361	-0.031934	0.064503	9.795904	-0.003202	-0.002046	0.000161
16540	13543386	-0.043999	0.072455	9.791173	-0.007786	0.001162	-0.001544
16541	13543411	-0.029834	0.082818	9.804520	-0.010560	-0.002377	-0.003347
16542	13543436	-0.043276	0.090462	9.798837	-0.000739	-0.000839	-0.000605
16543	13543461	-0.038154	0.069803	9.784908	-0.005105	-0.000730	-0.003737
16544	13543486	-0.046881	0.076164	9.801745	0.000553	-0.001137	-0.000355
16545	13543511	-0.025316	0.063589	9.802109	-0.000352	-0.001155	-0.001125
16546	13543536	-0.036278	0.095863	9.817489	-0.006990	-0.001603	-0.001302
16547	13543561	-0.027014	0.084861	9.804029	-0.001846	-0.000742	-0.005287
16548	13543586	-0.017597	0.053121	9.806860	-0.004072	-0.003098	-0.003308
16549	13543611	-0.040893	0.092912	9.793080	-0.004606	0.001602	-0.005135
16550	13543636	-0.018199	0.087221	9.842326	-0.003587	-0.002119	-0.001505
16551	13543661	-0.014049	0.076319	9.811635	-0.006258	-0.005148	-0.006773
16552	13543686	-0.036890	0.097585	9.827091	-0.006522	0.001708	-0.002950
16553	13543711	-0.026996	0.121710	9.814079	-0.005467	-0.005576	-0.001132
16554	13543736	-0.039480	0.115205	9.828054	0.000316	0.000143	-0.002204
16555	13543761	-0.012586	0.103277	9.817377	-0.009216	0.000177	0.001794
16556	13543786	-0.047678	0.096331	9.810354	-0.004429	-0.003883	-0.002538
16557	13543811	-0.037139	0.090916	9.800728	-0.005776	0.002360	-0.003725
16558	13543836	-0.030164	0.092924	9.830894	-0.005780	0.000358	-0.003281
16559	13543861	-0.025038	0.093509	9.767103	-0.002378	0.000428	0.000107
16560	13543886	-0.018919	0.082513	9.805913	-0.006457	0.001439	-0.002632
16561	13543911	-0.022384	0.080191	9.835637	-0.003427	-0.003089	-0.003113
16562	13543936	-0.028343	0.097534	9.836635	-0.011510	-0.000452	-0.001608
16563	13543961	-0.016382	0.075603	9.794881	-0.006528	0.001504	-0.005838
16564	13543986	-0.023023	0.073565	9.801133	-0.004327	-0.002779	-0.000481
16565	13544011	-0.018386	0.074393	9.811182	-0.004123	0.000644	-0.002900
16566	13544036	-0.010513	0.059798	9.807785	-0.006939	-0.001010	0.001396
16567	13544061	-0.001753	0.039567	9.808713	-0.002857	0.001250	-0.002332
16568	13544086	-0.023957	0.074211	9.787716	-0.004724	-0.000398	-0.000730
16569	13544111	-0.032136	0.087039	9.779127	-0.003973	-0.001799	0.001188
16570	13544136	-0.014784	0.095420	9.807801	-0.002708	-0.001392	-0.000414
16571	13544161	-0.025163	0.085886	9.799232	-0.004306	0.002587	-0.000520
16572	13544186	-0.028274	0.079378	9.785356	-0.007196	0.000595	-0.002185
16573	13544211	-0.015604	0.081508	9.814026	-0.005403	-0.001507	-0.003295
16574	13544236	-0.007916	0.077233	9.820712	-0.003278	-0.005803	-0.001785
16575	13544261	-0.019716	0.059071	9.821737	-0.002059	0.002630	-0.000462
16576	13544286	-0.017009	0.043951	9.818847	-0.005178	-0.004216	0.000539
16577	13544311	-0.042428	0.094028	9.810330	-0.005758	0.000043	-0.000143
16578	13544336	-0.013625	0.078821	9.802045	-0.007303	-0.000058	-0.003603
16579	13544361	-0.035668	0.095261	9.797360	-0.007014	-0.001216	-0.003541
16580	13544386	-0.040927	0.087951	9.804585	-0.004426	0.000325	-0.000913
16581	13544411	-0.046135	0.089315	9.800293	-0.009835	0.001523	0.001931
16582	13544436	-0.037119	0.094300	9.795923	-0.005615	-0.000338	0.002676
16583	13544461	-0.026852	0.085701	9.777660	-0.005546	-0.002404	0.003438
16584	13544486	-0.034729	0.102648	9.782022	-0.000864	-0.000842	-0.000034
16585	13544511	-0.026738	0.065443	9.803075	-0.001331	-0.002991	-0.003955
16586	13544536	-0.024116	0.069887	9.821751	-0.004819	0.000173	-0.007203
16587	13544561	-0.011450	0.086718	9.817375	-0.007564	0.002132	-0.004613
16588	13544586	-0.027774	0.100406	9.810740	-0.001867	0.000702	0.004339
16589	13544611	-0.019979	0.082391	9.818381	-0.000499	0.001414	-0.005020
16590	13544636	-0.058726	0.103708	9.813293	-0.007682	-0.000392	-0.004557
16591	13544661	-0.014674	0.094737	9.788145	-0.004336	-0.000513	-0.000601
16592	13544686	-0.004864	0.100124	9.818286	-0.002657	-0.005338	-0.002424
16593	13544711	-0.017837	0.112504	9.802534	-0.002652	-0.001323	-0.000797
16594	13544736	-0.008196	0.093864	9.819277	-0.005163	0.001210	-0.002895
16595	13544761	-0.029912	0.075086	9.821301	-0.001854	0.000122	0.002798
16596	13544786	-0.022002	0.094381	9.806890	-0.000355	0.005697	0.002380
16597	13544811	-0.014017	0.064180	9.827455	-0.007863	-0.002524	-0.001559
16598	13544836	-0.009274	0.067802	9.815450	-0.006019	-0.000025	-0.001365
16599	13544861	-0.016754	0.063006	9.813084	-0.006168	-0.003721	-0.004523
16600	13544886	-0.020342	0.090414	9.784348	-0.005835	0.000164	-0.003931
16601	13544911	-0.015557	0.052512	9.786236	-0.005350	-0.000983	-0.000986
16602	13544936	-0.022370	0.059854	9.797299	-0.004430	-0.001687	-0.000928
16603	13544961	-0.021675	0.041291	9.803045	-0.006181	-0.005269	-0.002606
16604	13544986	-0.037428	0.072209	9.815110	-0.005162	0.001277	-0.001223
16605	13545011	-0.018345	0.071100	9.810710	-0.002284	0.001396	-0.001806
16606	13545036	-0.010714	0.074110	9.808743	0.000407	-0.002822	-0.001714
16607	13545061	-0.006989	0.067570	9.832694	-0.004528	-0.000589	-0.001308
16608	13545086	-0.025594	0.084281	9.812164	-0.002399	-0.003463	-0.003950
16609	13545111	-0.021164	0.064312	9.817433	-0.004180	0.000654	-0.000915
16610	13545136	-0.038061	0.095733	9.796424	-0.005256	0.000110	-0.001806
16611	13545161	-0.021869	0.085634	9.815510	-0.006568	-0.000745	-0.000726
16612	13545186	-0.032418	0.079464	9.837134	-0.008751	-0.000530	-0.001617
16613	13545211	-0.054289	0.090450	9.818061	-0.006765	-0.002889	-0.003421
16614	13545236	-0.033428	0.100480	9.801186	-0.001042	0.000578	0.000367
16615	13545261	-0.022691	0.103573	9.822704	-0.007355	0.003819	-0.004162
16616	13545286	-0.041163	0.098680	9.819448	-0.002991	0.003642	-0.000064
16617	13545311	-0.024761	0.092901	9.806414	-0.004072	-0.000970	-0.004770
16618	13545336	-0.017637	0.091038	9.810211	-0.005190	0.000240	-0.001429
16619	13545361	-0.040435	0.098642	9.787323	-0.008184	-0.000517	-0.001033
16620	13545386	-0.061571	0.086910	9.763934	-0.004859	-0.002205	0.000742
16621	13545411	-0.038508	0.085004	9.813668	-0.008428	-0.002521	0.002547
16622	13545436	-0.020813	0.079117	9.810235	-0.005677	-0.000800	-0.002328
16623	13545461	-0.019238	0.067726	9.811666	-0.006431	0.000869	-0.000775
16624	13545486	-0.027549	0.077884	9.826553	-0.000766	-0.001942	-0.000422
16625	13545511	-0.036934	0.074687	9.808874	-0.003056	-0.000626	-0.002915
16626	13545536	-0.024598	0.075405	9.804505	-0.002679	0.003578	-0.005004
16627	13545561	-0.031700	0.082069	9.795428	-0.003649	0.001487	-0.006227
16628	13545586	-0.027091	0.091674	9.793490	-0.003076	0.002483	0.000247
16629	13545611	-0.045192	0.088747	9.812267	-0.004041	-0.003938	-0.002731
16630	13545636	-0.034516	0.074996	9.818919	-0.008440	-0.006601	-0.001262
16631	13545661	-0.015687	0.082039	9.810209	-0.002709	0.006743	-0.003769
16632	13545686	-0.007657	0.055969	9.813531	-0.006786	-0.002046	-0.001369
16633	13545711	-0.050437	0.087285	9.811820	-0.005135	0.000966	0.002562
16634	13545736	-0.034684	0.084645	9.809817	-0.004582	-0.000972	-0.001630
16635	13545761	-0.032252	0.088701	9.794951	-0.003029	-0.001462	-0.000608
16636	13545786	-0.028770	0.072048	9.804994	-0.003250	-0.000565	-0.001438
16637	13545811	-0.026558	0.088182	9.804022	-0.002077	-0.003001	0.000535
16638	13545836	-0.026307	0.067307	9.797313	-0.008951	-0.000601	-0.002578
16639	13545861	-0.027380	0.065593	9.816022	-0.011513	0.004013	0.000022
16640	13545886	-0.047515	0.098556	9.850158	-0.006057	0.003260	-0.003582
16641	13545911	-0.023007	0.098571	9.809764	-0.004008	0.003369	-0.001346
16642	13545936	-0.037131	0.091673	9.814628	-0.003578	-0.004782	-0.006008
16643	13545961	-0.044291	0.078634	9.825212	-0.002272	0.003073	-0.002573
16644	13545986	-0.019309	0.070571	9.813101	-0.004387	0.000833	-0.003350
16645	13546011	-0.025918	0.081287	9.788205	-0.005198	-0.001889	-0.002268
16646	13546036	-0.000200	0.071832	9.805824	-0.007208	-0.000830	-0.001429
16647	13546061	0.007529	0.056607	9.810575	-0.009948	0.002611	-0.003582
16648	13546086	-0.040389	0.087140	9.798832	-0.004961	0.001286	0.001852
16649	13546111	-0.023094	0.064181	9.817435	-0.010981	0.001110	0.000320
16650	13546136	-0.033124	0.073644	9.813650	-0.009856	-0.002100	0.000308
16651	13546161	-0.009631	0.061259	9.806819	-0.006916	0.000222	0.003897
16652	13546186	-0.012921	0.085093	9.827455	-0.007460	0.003372	0.001228
16653	13546211	-0.026934	0.082519	9.798749	-0.005515	-0.003710	-0.000805
16654	13546236	-0.031930	0.070261	9.789671	-0.006829	-0.005154	-0.004013
16655	13546261	-0.019985	0.071050	9.777631	-0.007981	-0.002976	-0.003423
16656	13546286	-0.023428	0.067500	9.792991	-0.004478	-0.000134	-0.001884
16657	13546311	-0.008566	0.055741	9.801549	-0.001498	0.001025	0.001194
16658	13546336	-0.025334	0.068776	9.800661	-0.003722	-0.004065	-0.004017
16659	13546361	0.001207	0.064486	9.821625	-0.006315	-0.000878	-0.002971
16660	13546386	-0.025279	0.084459	9.833264	-0.002687	-0.000235	-0.002331
16661	13546411	-0.025107	0.073208	9.821760	-0.003064	0.001508	-0.003536
16662	13546436	-0.027337	0.080315	9.791565	-0.002040	-0.002877	-0.007413
16663	13546461	-0.037497	0.100355	9.771956	-0.005656	-0.000991	0.001457
16664	13546486	-0.007596	0.080523	9.820713	-0.006911	0.002287	0.000645
16665	13546511	-0.042878	0.089696	9.818495	-0.001597	-0.000083	-0.000668
16666	13546536	-0.021018	0.055209	9.821738	-0.006424	-0.003593	-0.002532
16667	13546561	-0.046836	0.090277	9.836240	-0.004105	0.000392	-0.002004
16668	13546586	-0.024245	0.088215	9.803541	-0.004359	0.002059	-0.003344
16669	13546611	-0.013776	0.085302	9.815955	-0.001380	-0.000916	-0.001252
16670	13546636	-0.019930	0.082284	9.819330	-0.007761	-0.001547	-0.000273
16671	13546661	-0.010656	0.075638	9.796281	-0.008063	-0.002003	0.000750
16672	13546686	-0.028973	0.087555	9.807391	-0.006457	-0.000823	-0.005786
16673	13546711	-0.024603	0.081129	9.801149	-0.003105	0.001387	0.002359
16674	13546736	-0.015408	0.070274	9.806842	-0.000973	-0.003357	0.003482
16675	13546761	-0.045367	0.098327	9.806521	-0.005704	0.002238	-0.002249
16676	13546786	-0.024181	0.088231	9.800185	-0.006627	-0.001268	-0.001624
16677	13546811	-0.035359	0.095925	9.817493	-0.002755	0.000028	-0.003034
16678	13546836	-0.035370	0.103487	9.816052	-0.007212	-0.007029	-0.002547
16679	13546861	-0.031692	0.070768	9.820349	-0.003900	-0.002454	-0.004521
16680	13546886	-0.050964	0.117601	9.839615	-0.009164	-0.001374	0.000957
16681	13546911	-0.029897	0.088310	9.792061	-0.005604	-0.000986	0.000556
16682	13546936	-0.045903	0.102073	9.810841	-0.000954	0.001475	-0.005536
16683	13546961	-0.037655	0.087256	9.822305	-0.007232	0.003690	-0.005500
16684	13546986	-0.048989	0.080609	9.811814	-0.007804	0.001943	0.001539
16685	13547011	-0.036505	0.078547	9.805037	-0.004615	0.002325	-0.001223
16686	13547036	-0.042529	0.094094	9.835252	-0.007896	-0.003883	-0.006376
16687	13547061	-0.036520	0.083444	9.795459	-0.005212	0.000955	-0.001553
16688	13547086	-0.049086	0.059904	9.804142	-0.003840	-0.003794	0.003937
16689	13547111	-0.026234	0.090836	9.818411	-0.002716	0.000797	-0.001554
16690	13547136	-0.016014	0.076386	9.811651	0.001313	-0.001061	-0.000936
16691	13547161	-0.036974	0.084262	9.799285	-0.005886	-0.002426	-0.003299
16692	13547186	-0.017850	0.069525	9.819813	-0.007685	-0.000587	-0.007321
16693	13547211	-0.046469	0.077515	9.804612	-0.000021	-0.001675	-0.004975
16694	13547236	-0.036812	0.077204	9.797372	-0.005682	-0.006554	0.000335
16695	13547261	-0.030006	0.064912	9.795423	-0.011830	-0.002913	-0.003029
16696	13547286	-0.028455	0.087065	9.807386	-0.009678	-0.003910	-0.003164
16697	13547311	-0.023911	0.066356	9.804012	-0.007111	-0.002053	-0.002716
16698	13547336	-0.017215	0.090447	9.818365	-0.004493	0.000510	-0.001495
16699	13547361	-0.032978	0.089125	9.831863	-0.001514	0.001408	-0.001042
16700	13547386	-0.014368	0.095771	9.813072	-0.004448	0.002506	-0.006606
16701	13547411	-0.013292	0.089554	9.816898	-0.005656	-0.005588	-0.002353
16702	13547436	-0.015396	0.076578	9.791984	-0.006643	-0.002685	0.000103
16703	13547461	-0.006840	0.077063	9.798665	-0.008012	-0.005685	0.001565
16704	13547486	0.002874	0.053429	9.807247	-0.001009	-0.000262	0.000864
16705	13547511	-0.050986	0.098800	9.801753	-0.006570	-0.001019	-0.005212
16706	13547536	-0.037127	0.097186	9.793051	-0.005834	0.000229	-0.000204
16707	13547561	-0.001530	0.070084	9.795274	-0.006519	-0.000557	-0.001681
16708	13547586	-0.010333	0.093766	9.790995	-0.007939	-0.004794	-0.008243
16709	13547611	-0.036106	0.083167	9.809353	-0.007753	0.000399	0.001210
16710	13547636	-0.047227	0.094802	9.817560	-0.006525	-0.000432	-0.003280
16711	13547661	-0.027290	0.074541	9.789170	-0.010519	-0.001332	0.001529
16712	13547686	-0.016372	0.075097	9.796305	-0.005555	-0.000796	-0.000787
16713	13547711	-0.024987	0.072029	9.804501	-0.005727	0.001015	0.000443
16714	13547736	-0.036899	0.069498	9.806492	-0.006621	0.002801	-0.001024
16715	13547761	-0.038526	0.090850	9.803125	-0.009915	-0.000624	-0.005136
16716	13547786	-0.059793	0.102255	9.820014	-0.001073	0.001873	0.000821
16717	13547811	-0.039699	0.100684	9.813202	-0.003879	0.003502	0.000261
16718	13547836	-0.022104	0.074964	9.799690	-0.007313	-0.001349	0.000176
16719	13547861	-0.025701	0.099759	9.792991	-0.003694	-0.000767	-0.002010
16720	13547886	-0.038518	0.085111	9.805532	-0.006506	0.001521	0.001408
16721	13547911	-0.039299	0.079599	9.796901	-0.004023	-0.000183	-0.000212
16722	13547936	-0.036882	0.073319	9.801199	-0.007589	-0.000763	0.001460
16723	13547961	-0.022061	0.099889	9.816946	-0.005659	0.000487	-0.004178
16724	13547986	-0.030288	0.072698	9.814121	-0.010030	0.001322	-0.001343
16725	13548011	-0.026349	0.107122	9.805460	-0.004849	-0.000595	-0.002712
16726	13548036	-0.022595	0.100713	9.823174	-0.003931	-0.001281	-0.000994
16727	13548061	-0.031084	0.088540	9.834249	-0.007378	0.000463	-0.000967
16728	13548086	-0.024873	0.068280	9.797318	-0.011334	0.000270	0.001031
16729	13548111	-0.012342	0.092241	9.793886	-0.010094	0.003584	0.001042
16730	13548136	0.013155	0.062356	9.816284	-0.007606	0.001688	0.000508
16731	13548161	-0.009144	0.100645	9.808244	-0.005710	-0.001706	-0.002721
16732	13548186	-0.034133	0.089660	9.793038	-0.005233	-0.004731	-0.001773
16733	13548211	-0.038987	0.088989	9.802657	-0.003210	0.000478	-0.000207
16734	13548236	-0.026000	0.118042	9.808331	-0.000961	-0.003543	0.005345
16735	13548261	-0.019751	0.065221	9.819336	-0.005503	-0.000352	-0.004573
16736	13548286	-0.020806	0.082319	9.815497	-0.007799	-0.004715	-0.001831
16737	13548311	-0.012395	0.096848	9.803475	-0.007451	-0.001085	0.001268
16738	13548336	-0.033087	0.079901	9.784418	-0.001441	0.003414	-0.000009
16739	13548361	-0.006876	0.035653	9.803941	-0.010310	-0.002307	-0.004312
16740	13548386	-0.013094	0.076117	9.797742	-0.004809	0.000450	0.001974
16741	13548411	-0.000507	0.056678	9.809661	-0.000486	-0.000970	-0.001767
16742	13548436	-0.039699	0.064628	9.808900	-0.007090	0.003766	0.001487
16743	13548461	-0.036165	0.091289	9.809340	-0.004898	-0.003047	-0.000802
16744	13548486	-0.043662	0.075938	9.813221	-0.005770	0.000034	-0.002003
16745	13548511	-0.032387	0.088936	9.813166	-0.001453	-0.000599	-0.002208
16746	13548536	-0.043939	0.094436	9.815140	-0.003232	0.003318	-0.000706
16747	13548561	-0.023945	0.098945	9.817439	0.002007	-0.000657	-0.000490
16748	13548586	-0.025205	0.078938	9.817918	-0.006913	0.002089	-0.001089
16749	13548611	-0.034588	0.071788	9.813662	-0.004879	0.002906	0.002822
16750	13548636	-0.023685	0.084813	9.808805	-0.004303	-0.003748	-0.001961
16751	13548661	-0.012509	0.063144	9.811152	-0.001009	-0.002256	0.002401
16752	13548686	-0.021222	0.087146	9.787231	0.002874	-0.002405	-0.008450
16753	13548711	-0.025925	0.067724	9.806908	-0.004087	0.001822	-0.000073
16754	13548736	-0.017631	0.062820	9.792479	-0.006202	-0.000484	-0.000592
16755	13548761	-0.008999	0.060216	9.783341	-0.005457	0.000428	-0.001042
16756	13548786	-0.030186	0.077425	9.792544	-0.003941	-0.001164	-0.003034
16757	13548811	-0.019729	0.072307	9.789141	-0.006323	0.005850	-0.000557
16758	13548836	-0.011300	0.050054	9.796774	-0.003968	-0.000063	-0.000341
16759	13548861	-0.024324	0.077611	9.841879	-0.008720	-0.001757	-0.002712
16760	13548886	-0.015795	0.071939	9.786243	-0.008425	-0.000975	-0.000784
16761	13548911	-0.040152	0.104990	9.809359	-0.004047	-0.003281	0.003877
16762	13548936	-0.016122	0.093714	9.788634	-0.004502	0.000970	0.001976
16763	13548961	-0.013387	0.065427	9.781922	-0.006132	0.006115	0.002454
16764	13548986	-0.019392	0.082458	9.808786	-0.007251	-0.001596	-0.000082
16765	13549011	-0.035855	0.090023	9.829958	-0.005700	0.001778	-0.004944
16766	13549036	-0.034761	0.094349	9.798789	-0.002648	0.000672	-0.003804
16767	13549061	-0.017613	0.056364	9.811181	-0.002606	-0.002424	0.000797
16768	13549086	-0.017808	0.059584	9.817888	-0.007154	0.001636	-0.000328
16769	13549111	-0.044796	0.096835	9.813708	-0.001162	-0.001560	0.000094
16770	13549136	-0.034863	0.098456	9.804548	-0.005321	0.000511	0.002359
16771	13549161	-0.015564	0.077310	9.813076	-0.000636	-0.001860	0.003684
16772	13549186	-0.019419	0.059003	9.793932	-0.004835	-0.005373	-0.001135
16773	13549211	-0.017928	0.084970	9.802063	-0.005674	-0.002997	-0.002722
16774	13549236	-0.037142	0.094693	9.805041	-0.001749	-0.001110	0.002792
16775	13549261	-0.025855	0.072645	9.795876	-0.004202	-0.002965	-0.000483
16776	13549286	-0.019362	0.070871	9.822692	-0.005521	0.000297	-0.005405
16777	13549311	-0.010409	0.085287	9.811613	-0.011949	-0.000916	-0.002697
16778	13549336	-0.011222	0.088525	9.790529	-0.006573	-0.004947	-0.000423
16779	13549361	-0.010848	0.087432	9.802510	-0.004207	-0.002715	-0.002021
16780	13549386	-0.005648	0.092370	9.796726	-0.003135	-0.000107	-0.000730
16781	13549411	-0.008327	0.074974	9.811129	-0.005224	-0.004596	0.003488
16782	13549436	-0.005681	0.086402	9.811110	-0.006358	0.000475	-0.003608
16783	13549461	-0.033978	0.070503	9.802146	-0.005980	-0.001322	-0.001885
16784	13549486	-0.036237	0.088742	9.820854	-0.002804	0.001577	-0.002064
16785	13549511	-0.014209	0.080166	9.811640	-0.002766	0.004548	-0.002757
16786	13549536	-0.028185	0.063890	9.805961	-0.006312	-0.001071	-0.002390
16787	13549561	-0.021705	0.078123	9.813113	-0.004904	-0.003046	-0.000735
16788	13549586	-0.024684	0.083716	9.818395	-0.004074	-0.002833	0.000158
16789	13549611	-0.014720	0.083818	9.819776	-0.002590	-0.002740	0.003040
16790	13549636	-0.003838	0.076070	9.776599	-0.003783	-0.002521	-0.005931
16791	13549661	-0.043332	0.093691	9.802200	-0.004445	0.000902	-0.003028
16792	13549686	-0.033529	0.070991	9.805024	-0.004028	-0.002389	-0.003044
16793	13549711	-0.045853	0.072388	9.792139	-0.008146	-0.001223	0.003706
16794	13549736	-0.024142	0.076024	9.824629	-0.004204	-0.004785	-0.001264
16795	13549761	-0.027494	0.079494	9.815062	0.000466	-0.000824	-0.003633
16796	13549786	-0.030662	0.069185	9.802616	-0.002605	0.001256	-0.000466
16797	13549811	-0.039746	0.100485	9.825188	-0.002545	0.000106	0.004403
16798	13549836	-0.032594	0.076907	9.791596	-0.004421	0.000322	0.000753
16799	13549861	-0.047885	0.104742	9.807068	-0.001505	0.000884	-0.004505
16800	13549886	-0.029499	0.077288	9.810835	-0.001964	-0.001012	-0.006436
16801	13549911	-0.025814	0.113357	9.838614	-0.009169	-0.001781	-0.003792
16802	13549936	-0.024785	0.072498	9.815133	-0.004821	0.005160	0.001366
16803	13549961	-0.033970	0.060437	9.796977	0.000878	0.000799	-0.000472
16804	13549986	-0.018167	0.070292	9.841454	-0.003599	-0.001746	-0.005025
16805	13550011	-0.005488	0.083846	9.831805	-0.004342	0.004064	0.000714
16806	13550036	-0.017362	0.082226	9.832825	-0.008427	0.003867	0.002331
16807	13550061	-0.051695	0.091890	9.825333	-0.007853	0.001416	-0.003323
16808	13550086	-0.017017	0.106102	9.824183	-0.005582	-0.005585	-0.000037
16809	13550111	-0.005103	0.065077	9.817905	-0.007725	-0.000718	-0.002448
16810	13550136	-0.018266	0.087793	9.816056	-0.001654	0.001515	-0.005785
16811	13550161	-0.015637	0.080413	9.804529	-0.001213	-0.004284	-0.001583
16812	13550186	-0.016634	0.073656	9.808863	-0.003316	0.001892	0.001404
16813	13550211	-0.028511	0.074473	9.805085	-0.008860	0.000815	-0.002307
16814	13550236	-0.036924	0.098071	9.808488	-0.004454	0.003347	-0.002426
16815	13550261	-0.000081	0.085447	9.828419	-0.002992	-0.008841	-0.001411
16816	13550286	-0.035806	0.086678	9.810871	-0.002635	-0.001398	0.001197
16817	13550311	-0.042385	0.082380	9.807063	-0.002897	-0.003663	-0.000992
16818	13550336	-0.021309	0.102774	9.824206	-0.003719	-0.003614	0.000802
16819	13550361	-0.016577	0.074675	9.805500	-0.003539	0.000520	-0.001547
16820	13550386	-0.023605	0.107828	9.799297	-0.007640	-0.001165	0.000696
16821	13550411	-0.011408	0.078890	9.810746	-0.003509	-0.002190	0.001255
16822	13550436	-0.016955	0.074746	9.794958	-0.010404	-0.003026	-0.000721
16823	13550461	-0.029430	0.083177	9.793093	-0.006840	-0.006713	-0.003825
16824	13550486	-0.014949	0.063339	9.799750	-0.006677	-0.001211	0.000696
16825	13550511	-0.035271	0.084275	9.808471	-0.007771	-0.001630	-0.005269
16826	13550536	-0.020939	0.085094	9.802634	-0.003292	-0.003415	-0.001958
16827	13550561	-0.021858	0.106625	9.818937	-0.005661	0.001274	0.003397
16828	13550586	-0.041639	0.091729	9.814729	-0.006881	0.001176	-0.001796
16829	13550611	-0.010701	0.094472	9.817441	-0.003234	-0.000368	0.003581
16830	13550636	-0.013857	0.088390	9.810270	-0.004271	-0.002989	-0.004579
16831	13550661	-0.023041	0.088143	9.818954	-0.002210	-0.000803	-0.000797
16832	13550686	-0.016303	0.092108	9.814608	-0.001176	-0.005047	0.002714
16833	13550711	-0.034773	0.073360	9.814692	-0.003479	0.000980	0.000630
16834	13550736	-0.011676	0.072116	9.787745	-0.007053	0.000726	0.001928
16835	13550761	-0.052308	0.111496	9.813825	-0.009464	-0.000559	-0.003326
16836	13550786	-0.051142	0.095542	9.806623	-0.005065	-0.001375	0.002103
16837	13550811	-0.032679	0.067273	9.809422	-0.003041	-0.002758	0.002027
16838	13550836	-0.042433	0.089099	9.800835	-0.005017	-0.003375	0.000487
16839	13550861	-0.038694	0.088163	9.802736	-0.005515	0.004560	-0.000110
16840	13550886	-0.056179	0.073854	9.823431	-0.004680	-0.001886	-0.001171
16841	13550911	-0.046972	0.094338	9.824343	-0.006732	-0.001536	-0.000013
16842	13550936	-0.029063	0.087785	9.801723	-0.008054	-0.002730	-0.004566
16843	13550961	-0.030848	0.114852	9.800286	-0.006311	-0.000887	-0.002770
16844	13550986	-0.041118	0.095386	9.793164	-0.004850	0.003730	-0.002299
16845	13551011	-0.046145	0.079143	9.797984	-0.003642	0.001614	-0.004235
16846	13551036	-0.025814	0.114572	9.827113	-0.000490	0.001936	0.001593
16847	13551061	-0.042905	0.088618	9.798910	-0.006428	-0.003079	0.001773
16848	13551086	-0.034205	0.098772	9.828116	-0.004314	0.003028	-0.002109
16849	13551111	-0.052534	0.078569	9.830136	-0.006141	0.002092	-0.002043
16850	13551136	-0.029509	0.083092	9.801250	-0.003253	-0.000311	-0.001553
16851	13551161	-0.019352	0.101021	9.814145	-0.005963	0.000414	-0.001161
16852	13551186	-0.038911	0.107995	9.805126	-0.007853	-0.000985	-0.006224
16853	13551211	-0.023947	0.084244	9.825670	-0.002010	-0.000803	0.001389
16854	13551236	-0.032267	0.095497	9.765305	-0.003961	-0.004525	-0.001703
16855	13551261	-0.033447	0.067227	9.780664	-0.003195	-0.002581	-0.003746
16856	13551286	-0.019525	0.078808	9.813171	-0.002243	-0.001782	-0.000411
16857	13551311	-0.017560	0.071657	9.813654	-0.003146	-0.001398	0.003888
16858	13551336	-0.020952	0.074913	9.817030	-0.005020	0.000753	-0.001670
16859	13551361	0.007534	0.078895	9.829349	-0.002100	-0.002426	-0.000992
16860	13551386	-0.021220	0.068991	9.797848	-0.004175	-0.001429	-0.000341
16861	13551411	-0.020725	0.060746	9.811272	-0.006698	-0.000696	-0.000717
16862	13551436	-0.016463	0.061646	9.817964	-0.003034	-0.003156	0.000413
16863	13551461	-0.026754	0.064966	9.778720	-0.002335	-0.003009	0.002147
16864	13551486	-0.047309	0.089823	9.816676	0.000662	-0.000435	0.001195
16865	13551511	-0.016305	0.095127	9.798784	-0.005430	-0.000091	0.001661
16866	13551536	-0.030127	0.077406	9.827627	-0.007381	0.003308	0.003289
16867	13551561	-0.014809	0.043704	9.811730	-0.006261	-0.002298	0.001839
16868	13551586	-0.025501	0.068398	9.802187	-0.003566	-0.002845	-0.003941
16869	13551611	-0.046604	0.090402	9.778328	-0.004393	-0.000784	-0.000073
16870	13551636	-0.032637	0.102859	9.804132	-0.008515	-0.000419	-0.006738
16871	13551661	-0.019743	0.068079	9.794970	-0.008824	-0.002609	-0.002642
16872	13551686	-0.031632	0.100070	9.802695	-0.008731	-0.001518	-0.006036
16873	13551711	-0.042667	0.103162	9.807552	-0.008067	0.001988	-0.002871
16874	13551736	-0.030368	0.078867	9.797432	-0.005446	0.000234	-0.000578
16875	13551761	-0.050036	0.123692	9.799433	-0.002176	0.000428	0.002873
16876	13551786	-0.029337	0.097018	9.820421	-0.006066	-0.000298	-0.001873
16877	13551811	-0.024370	0.084293	9.816565	-0.007759	-0.001815	-0.001487
16878	13551836	-0.041482	0.086265	9.800364	-0.005880	0.002101	0.001483
16879	13551861	-0.016208	0.084707	9.799745	-0.004274	-0.000459	-0.002261
16880	13551886	-0.015591	0.067364	9.814604	-0.005642	-0.000982	0.008067
16881	13551911	-0.033040	0.093277	9.812285	-0.009412	-0.001910	-0.001422
16882	13551936	-0.033683	0.074001	9.803184	-0.004551	-0.003894	-0.001696
16883	13551961	-0.020652	0.090026	9.817984	-0.007816	0.000189	-0.001921
16884	13551986	-0.008387	0.055944	9.821280	-0.009032	0.001970	-0.002559
16885	13552011	0.001008	0.074362	9.805407	-0.005879	0.001644	-0.002052
16886	13552036	-0.010873	0.071875	9.807396	-0.001296	0.002961	0.001411
16887	13552061	-0.042151	0.089243	9.822412	-0.005215	0.005010	-0.003953
16888	13552086	-0.014302	0.090154	9.786315	-0.004056	0.000836	-0.002126
16889	13552111	-0.034104	0.073142	9.797913	-0.002144	-0.003268	-0.003113
16890	13552136	-0.024469	0.067653	9.792591	-0.003797	-0.003888	-0.005868
16891	13552161	-0.003374	0.058877	9.789141	-0.007588	-0.005360	-0.001058
16892	13552186	-0.030051	0.089136	9.805086	-0.010322	-0.003739	-0.002323
16893	13552211	-0.021473	0.080162	9.813191	-0.006586	-0.000373	-0.002128
16894	13552236	-0.025973	0.100133	9.806503	-0.005472	0.001070	-0.001669
16895	13552261	-0.018310	0.066179	9.800709	-0.003156	-0.003405	0.000995
16896	13552286	-0.018155	0.075867	9.821338	0.000800	0.001442	0.000049
16897	13552311	-0.028356	0.099271	9.797414	-0.005361	0.005655	-0.002414
16898	13552336	-0.048093	0.085970	9.786016	-0.002573	0.004810	0.000395
16899	13552361	-0.026111	0.078847	9.804583	-0.002109	-0.003973	0.000863
16900	13552386	-0.029632	0.103042	9.771532	-0.001331	0.003722	-0.002824
16901	13552411	-0.028075	0.079769	9.806037	-0.000477	-0.000905	0.001450
16902	13552436	0.016315	0.042556	9.792405	-0.000548	-0.002979	0.000027
16903	13552461	-0.029025	0.077301	9.808440	-0.004406	-0.000069	0.001594
16904	13552486	-0.027163	0.088535	9.790224	-0.001775	0.003719	0.000259
16905	13552511	-0.029502	0.088326	9.801729	-0.004955	-0.005442	-0.000548
16906	13552536	-0.026785	0.088124	9.812738	-0.008777	-0.003973	-0.003615
16907	13552561	-0.034954	0.088391	9.821410	-0.006151	0.000279	-0.002700
16908	13552586	-0.047198	0.068146	9.831066	-0.008249	0.003995	-0.000106
16909	13552611	-0.010459	0.040906	9.812665	-0.006121	-0.002746	0.002031
16910	13552636	-0.030737	0.098101	9.813722	-0.004472	-0.000076	-0.001231
16911	13552661	-0.035144	0.109893	9.814210	-0.003150	-0.003608	-0.001760
16912	13552686	-0.033994	0.095723	9.810854	-0.002003	-0.003582	-0.001641
16913	13552711	-0.041632	0.090349	9.817135	-0.000224	0.001357	-0.000466
16914	13552736	-0.012056	0.052007	9.802609	-0.002116	0.004035	-0.002885
16915	13552761	-0.033734	0.083199	9.792156	-0.003271	-0.001800	-0.001948
16916	13552786	-0.022947	0.092645	9.802653	-0.003575	-0.002520	-0.004387
16917	13552811	-0.027668	0.093220	9.795963	0.000657	-0.004376	0.001237
16918	13552836	-0.023006	0.095928	9.800245	-0.007768	-0.001293	-0.000139
16919	13552861	-0.042312	0.105308	9.826710	-0.006136	-0.000295	-0.001349
16920	13552886	-0.046040	0.094898	9.824824	-0.001146	0.002253	0.000380
16921	13552911	-0.026658	0.090042	9.781112	-0.005464	0.002751	-0.002810
16922	13552936	-0.031735	0.076105	9.790718	-0.003572	-0.000188	0.000247
16923	13552961	-0.033772	0.080610	9.804137	-0.008702	-0.002220	-0.002638
16924	13552986	-0.040549	0.061820	9.784539	-0.005926	-0.002944	-0.001815
16925	13553011	-0.020819	0.066980	9.809362	-0.000900	0.000447	0.001843
16926	13553036	-0.026487	0.089292	9.833347	-0.002994	-0.000302	0.001137
16927	13553061	-0.026303	0.085732	9.816100	-0.003766	-0.000517	-0.002643
16928	13553086	-0.015228	0.072626	9.812696	-0.008106	0.003874	0.002715
16929	13553111	-0.031911	0.090628	9.801252	-0.006346	-0.005920	-0.001191
16930	13553136	-0.016945	0.066187	9.801186	-0.002585	0.000662	-0.004441
16931	13553161	-0.028818	0.074219	9.791656	-0.006361	-0.005403	-0.001188
16932	13553186	-0.045207	0.074604	9.817147	-0.002822	-0.001329	0.003448
16933	13553211	-0.029729	0.093325	9.814670	-0.005756	-0.000100	-0.002959
16934	13553236	-0.009517	0.081113	9.793967	-0.001599	0.004044	0.000128
16935	13553261	-0.017598	0.081693	9.809329	-0.004891	-0.003310	-0.000221
16936	13553286	-0.013397	0.064179	9.781038	-0.002337	-0.003274	-0.003818
16937	13553311	-0.029112	0.079018	9.819942	-0.003628	0.001226	-0.003850
16938	13553336	-0.015042	0.069954	9.798296	-0.009403	-0.002287	0.001271
16939	13553361	-0.017935	0.061713	9.812231	-0.005920	0.003919	0.006428
16940	13553386	-0.011351	0.075005	9.813137	-0.009063	-0.004743	0.001065
16941	13553411	-0.019954	0.071444	9.822287	-0.009649	-0.002745	0.000246
16942	13553436	-0.034021	0.056406	9.806556	-0.002116	0.002356	-0.001483
16943	13553461	-0.022514	0.058906	9.801700	-0.010264	-0.001933	-0.005968
16944	13553486	-0.015497	0.061762	9.808852	-0.006808	-0.001210	0.000565
16945	13553511	-0.027888	0.060622	9.812267	-0.006402	-0.001985	-0.000405
16946	13553536	-0.023026	0.058469	9.802170	-0.006218	-0.001645	0.002484
16947	13553561	-0.030768	0.060984	9.818513	-0.004032	-0.001943	-0.000663
16948	13553586	-0.037272	0.085471	9.822376	-0.006647	-0.004306	0.001384
16949	13553611	-0.018551	0.070960	9.827561	-0.005069	-0.001641	-0.001560
16950	13553636	-0.024814	0.085383	9.808405	-0.006345	-0.001657	0.000112
16951	13553661	-0.021862	0.080313	9.801693	-0.004083	-0.004390	0.003491
16952	13553686	-0.028071	0.076243	9.818025	-0.003755	-0.002781	-0.001182
16953	13553711	-0.055690	0.094921	9.784126	0.000024	-0.005099	-0.002939
16954	13553736	-0.042495	0.089407	9.809478	-0.005318	0.000101	-0.002055
16955	13553761	-0.028578	0.086791	9.808429	-0.004843	-0.006673	0.000276
16956	13553786	-0.027592	0.091524	9.781111	-0.002371	-0.000243	-0.003226
16957	13553811	-0.031766	0.080502	9.784966	0.000013	-0.002320	-0.000609
16958	13553836	-0.016385	0.092591	9.812201	-0.001642	-0.000477	0.000873
16959	13553861	-0.000937	0.080978	9.806384	-0.004415	-0.002141	0.000037
16960	13553886	-0.008375	0.062822	9.809775	-0.005633	0.000040	0.000633
16961	13553911	-0.024725	0.078260	9.810330	-0.005615	-0.000942	-0.003664
16962	13553936	-0.021383	0.074501	9.812238	-0.004576	0.001088	-0.000902
16963	13553961	-0.028723	0.094403	9.804119	-0.007252	-0.001223	0.000180
16964	13553986	-0.028265	0.096388	9.797414	-0.008720	0.002429	-0.001140
16965	13554011	-0.039120	0.088704	9.805131	0.001276	-0.002186	-0.006959
16966	13554036	-0.034891	0.097960	9.787864	-0.000499	-0.000328	-0.001048
16967	13554061	-0.025722	0.081116	9.806509	-0.005597	0.001068	0.000066
16968	13554086	-0.039223	0.092730	9.818060	-0.001583	-0.004487	-0.001256
16969	13554111	-0.045946	0.087226	9.825309	-0.006044	0.003001	-0.002101
16970	13554136	-0.034424	0.086060	9.815653	-0.010298	0.001493	-0.005183
16971	13554161	-0.043357	0.077406	9.820004	-0.005212	-0.002857	0.002608
16972	13554186	-0.006746	0.081663	9.819831	-0.006363	-0.001021	-0.000590
16973	13554211	-0.020886	0.082243	9.800722	-0.005820	-0.002430	-0.004444
16974	13554236	-0.029523	0.085401	9.803637	-0.006835	-0.004575	-0.000350
16975	13554261	-0.007262	0.062040	9.797313	-0.005928	-0.005274	-0.004011
16976	13554286	-0.029539	0.088872	9.793581	-0.007717	-0.000514	0.001925
16977	13554311	-0.029121	0.085882	9.804608	-0.006159	0.000407	-0.002447
16978	13554336	-0.054246	0.082841	9.796103	-0.004789	0.000253	0.003974
16979	13554361	-0.044569	0.103498	9.816661	-0.006767	-0.004515	-0.000092
16980	13554386	-0.042519	0.086399	9.819998	-0.008653	-0.001831	-0.003019
16981	13554411	-0.043319	0.075511	9.818096	-0.006160	-0.001264	0.002044
16982	13554436	-0.041714	0.096982	9.814246	-0.004636	0.001089	0.000705
16983	13554461	-0.051242	0.073325	9.799446	-0.006604	-0.003663	0.000939
16984	13554486	-0.047723	0.092242	9.808053	-0.007111	-0.004002	-0.002396
16985	13554511	-0.025721	0.084594	9.804577	0.000383	-0.001863	-0.000030
16986	13554536	-0.013913	0.089430	9.805489	-0.001475	0.000040	-0.002839
16987	13554561	-0.021336	0.079500	9.793551	-0.005399	0.000879	-0.000706
16988	13554586	-0.033812	0.086950	9.794563	-0.002223	-0.000554	-0.001043
16989	13554611	-0.031901	0.107851	9.824748	-0.004260	0.001216	-0.001799
16990	13554636	-0.025181	0.105618	9.823746	-0.002240	-0.000098	-0.001940
16991	13554661	-0.026195	0.083260	9.795976	-0.000083	0.003104	0.000831
16992	13554686	-0.035584	0.091020	9.835310	-0.005417	0.001463	0.001091
16993	13554711	-0.011369	0.084998	9.786779	-0.003342	-0.001609	-0.002396
16994	13554736	-0.004850	0.083691	9.815031	-0.003387	-0.000048	0.001846
16995	13554761	-0.017895	0.068097	9.794970	-0.007103	0.002538	0.003155
16996	13554786	0.009649	0.066710	9.819757	-0.003155	-0.003341	0.001250
16997	13554811	-0.013256	0.078517	9.801175	-0.006063	-0.001019	-0.005400
16998	13554836	-0.036946	0.108027	9.809918	-0.001489	-0.005709	-0.000627
16999	13554861	-0.030218	0.090945	9.816104	-0.002664	-0.000562	-0.000407
17000	13554886	-0.022191	0.059782	9.811283	-0.005157	0.002874	-0.006855
17001	13554911	-0.031151	0.058235	9.815645	-0.001885	-0.001393	-0.003232
17002	13554936	-0.025920	0.066059	9.799309	-0.006373	-0.003016	-0.001240
17003	13554961	-0.044234	0.070292	9.821458	-0.003384	-0.002128	-0.000410
17004	13554986	-0.006864	0.061896	9.809769	-0.002331	-0.005470	-0.002487
17005	13555011	-0.038392	0.099927	9.812325	-0.000975	0.000769	0.001529
17006	13555036	-0.019010	0.094897	9.782500	-0.002645	-0.005803	-0.004283
17007	13555061	-0.022186	0.095023	9.831889	-0.006990	-0.005805	-0.002345
17008	13555086	-0.040381	0.070279	9.821911	-0.006086	-0.004175	-0.002015
17009	13555111	-0.027397	0.069007	9.795481	-0.002791	-0.001153	-0.005987
17010	13555136	-0.029506	0.080606	9.809875	-0.002311	-0.002177	-0.005735
17011	13555161	-0.034527	0.071974	9.778287	-0.007248	0.004260	-0.005493
17012	13555186	-0.012608	0.066182	9.801163	-0.008631	-0.000934	-0.005388
17013	13555211	-0.008046	0.076446	9.818876	-0.003530	-0.006135	-0.003766
17014	13555236	-0.018414	0.059134	9.825654	-0.005308	0.001782	-0.002947
17015	13555261	-0.020349	0.079025	9.794010	-0.005321	-0.001700	0.000498
17016	13555286	-0.020430	0.071977	9.819891	-0.007337	-0.002767	0.000942
17017	13555311	-0.034200	0.082173	9.793605	-0.007209	-0.001298	-0.005588
17018	13555336	-0.011826	0.073225	9.814114	0.001249	-0.003146	-0.000876
17019	13555361	-0.028671	0.092129	9.803635	-0.001562	-0.002861	0.002791
17020	13555386	-0.032551	0.089839	9.822351	-0.002305	-0.001387	0.004147
17021	13555411	-0.044037	0.067276	9.797014	-0.005367	-0.002155	0.001201
17022	13555436	-0.044472	0.087215	9.831996	-0.003344	-0.003608	-0.001889
17023	13555461	-0.044252	0.090746	9.788388	-0.000595	-0.001165	0.000809
17024	13555486	-0.034001	0.097235	9.806061	-0.001846	-0.002359	-0.003560
17025	13555511	-0.005912	0.058281	9.798741	-0.004172	0.002648	-0.000578
17026	13555536	-0.030309	0.070476	9.813722	-0.009003	-0.004616	0.000426
17027	13555561	-0.050813	0.079659	9.788420	-0.007385	0.000450	-0.004420
17028	13555586	-0.028972	0.084169	9.794535	-0.003846	-0.004008	-0.002727
17029	13555611	-0.045857	0.098123	9.801323	-0.001599	-0.004292	-0.002152
17030	13555636	-0.016324	0.086525	9.806931	-0.001560	0.002813	-0.004563
17031	13555661	-0.020757	0.072444	9.790184	-0.004606	-0.000146	-0.003283
17032	13555686	-0.033979	0.066692	9.786898	-0.001219	0.000179	-0.000401
17033	13555711	-0.041423	0.085806	9.798916	-0.005147	-0.001319	-0.001489
17034	13555736	-0.017168	0.075902	9.815092	-0.005770	0.001958	-0.006157
17035	13555761	-0.026165	0.093961	9.778219	-0.001934	-0.001785	-0.003231
17036	13555786	-0.048402	0.076277	9.797037	-0.003839	-0.002329	-0.002973
17037	13555811	-0.027102	0.083615	9.801723	-0.003806	-0.001232	-0.002518
17038	13555836	-0.041111	0.078008	9.844924	-0.003262	-0.004312	-0.000294
17039	13555861	-0.044613	0.106590	9.802278	-0.008057	-0.000332	-0.002822
17040	13555886	-0.009009	0.073039	9.821280	-0.007549	-0.002331	-0.002456
17041	13555911	-0.014828	0.078642	9.820832	-0.008747	0.000875	-0.005764
17042	13555936	-0.011234	0.063723	9.810747	-0.006317	-0.002757	-0.001565
17043	13555961	-0.010944	0.088257	9.791094	0.000036	-0.001226	-0.002918
17044	13555986	-0.014252	0.077949	9.808375	-0.005202	0.000493	-0.000262
17045	13556011	-0.002769	0.074826	9.803505	-0.006622	-0.001080	0.000690
17046	13556036	-0.018814	0.086123	9.767646	-0.001928	-0.005712	0.001557
17047	13556061	-0.026950	0.075217	9.792603	-0.004533	-0.002606	-0.004001
17048	13556086	-0.001639	0.056107	9.819335	-0.004330	-0.004587	0.003299
17049	13556111	-0.007971	0.073822	9.804983	-0.005770	-0.001913	-0.003479
17050	13556136	-0.035008	0.096642	9.807987	-0.007084	0.004023	0.003165
17051	13556161	-0.047840	0.088205	9.821965	-0.006953	0.001234	-0.002882
17052	13556186	-0.021784	0.066729	9.820392	-0.007960	-0.001295	-0.000198
17053	13556211	-0.032309	0.078309	9.802706	-0.003392	-0.001803	0.000043
17054	13556236	-0.034999	0.059124	9.812779	-0.006440	-0.001284	-0.007129
17055	13556261	-0.030184	0.101324	9.789270	-0.001860	0.002167	-0.002506
17056	13556286	-0.045695	0.085375	9.793658	-0.004975	-0.000671	-0.004119
17057	13556311	-0.010587	0.091362	9.802593	-0.006558	-0.001213	-0.003284
17058	13556336	-0.030445	0.082156	9.799333	-0.003520	-0.002262	-0.003168
17059	13556361	-0.023782	0.090398	9.794510	-0.002606	-0.004886	-0.000872
17060	13556386	-0.009883	0.090495	9.768559	-0.004022	-0.004393	-0.000551
17061	13556411	-0.045512	0.111066	9.785995	-0.008103	0.001350	-0.000951
17062	13556436	-0.031664	0.099561	9.806533	-0.003996	0.000772	-0.003146
17063	13556461	-0.025097	0.073344	9.789253	-0.004853	0.003530	-0.005054
17064	13556486	-0.023245	0.077012	9.802175	-0.002562	-0.001983	-0.002591
17065	13556511	-0.020674	0.090182	9.806962	-0.009224	0.004758	0.002208
17066	13556536	-0.033048	0.088403	9.818520	-0.008586	0.000368	-0.000064
17067	13556561	-0.022146	0.064636	9.803613	-0.006059	-0.000358	0.002176
17068	13556586	-0.019744	0.069166	9.791624	-0.001164	0.000106	-0.003545
17069	13556611	-0.026233	0.061615	9.779675	-0.004077	-0.002651	0.000805
17070	13556636	-0.028461	0.069267	9.802689	-0.007543	0.002208	0.005074
17071	13556661	-0.008764	0.060523	9.804029	-0.006789	-0.000188	-0.003788
17072	13556686	-0.025182	0.082072	9.808900	-0.004020	-0.006859	-0.003320
17073	13556711	-0.014600	0.070042	9.799737	-0.002152	0.001055	-0.004822
17074	13556736	-0.043138	0.089128	9.830548	-0.005268	-0.001380	-0.002198
17075	13556761	-0.035970	0.096938	9.818538	-0.005476	-0.000538	0.001790
17076	13556786	-0.017296	0.066851	9.784426	-0.008333	-0.000086	-0.004873
17077	13556811	-0.035558	0.072723	9.792657	-0.005364	0.001849	-0.000705
17078	13556836	-0.023160	0.060161	9.818488	-0.001359	0.000633	0.000368
17079	13556861	-0.011346	0.068738	9.821774	-0.004779	-0.000332	0.002554
17080	13556886	-0.018897	0.075765	9.789689	-0.006266	-0.000440	-0.004183
17081	13556911	-0.020577	0.063967	9.786826	-0.003199	-0.004314	-0.000228
17082	13556936	-0.038630	0.083654	9.813274	-0.009270	-0.002420	-0.001164
17083	13556961	-0.036665	0.082431	9.808947	-0.002520	-0.003067	0.002794
17084	13556986	-0.050856	0.115640	9.797044	-0.005785	0.000741	-0.002050
17085	13557011	-0.018276	0.092563	9.813661	-0.001822	0.000741	-0.003858
17086	13557036	-0.036249	0.090223	9.796005	-0.002675	-0.000632	-0.005086
17087	13557061	-0.026037	0.100872	9.820403	-0.004970	-0.000399	0.001854
17088	13557086	-0.035607	0.116931	9.787376	-0.003241	0.001961	0.004362
17089	13557111	-0.039386	0.116822	9.791215	-0.003286	-0.003485	-0.003433
17090	13557136	-0.028600	0.082403	9.811790	-0.007804	-0.002138	-0.000201
17091	13557161	-0.015138	0.076663	9.794952	-0.008313	0.002386	0.004120
17092	13557186	-0.021949	0.077310	9.815115	-0.002068	0.000803	-0.001620
17093	13557211	-0.027152	0.083445	9.809871	-0.006621	-0.001144	-0.000456
17094	13557236	-0.020607	0.092550	9.809830	-0.006254	-0.002623	-0.000466
17095	13557261	-0.039809	0.094938	9.821911	-0.006549	0.000665	-0.001024
17096	13557286	-0.046655	0.107618	9.825297	-0.008403	0.000823	0.000778
17097	13557311	-0.005580	0.079723	9.792985	-0.004564	-0.001702	-0.003867
17098	13557336	-0.020370	0.105346	9.811743	-0.005306	-0.000152	-0.002129
17099	13557361	-0.025098	0.103961	9.804108	-0.006378	0.003575	0.000784
17100	13557386	-0.033675	0.073104	9.802228	-0.001238	-0.001580	-0.004645
17101	13557411	-0.013726	0.078572	9.800201	-0.003098	-0.001545	-0.004128
17102	13557436	-0.010836	0.067861	9.818424	-0.006256	0.000033	0.003780
17103	13557461	-0.032337	0.071053	9.808458	-0.006381	0.003175	-0.005442
17104	13557486	-0.035916	0.090405	9.811838	-0.008415	0.003350	0.000854
17105	13557511	-0.022211	0.070335	9.805532	-0.004059	-0.001360	-0.001301
17106	13557536	-0.023045	0.066775	9.785874	-0.006585	-0.000182	-0.001231
17107	13557561	-0.022108	0.069667	9.785874	-0.005552	-0.002415	0.001518
17108	13557586	-0.038233	0.087576	9.808011	-0.007573	0.003044	0.000723
17109	13557611	-0.034095	0.073771	9.787865	-0.004463	0.001475	-0.002564
17110	13557636	-0.021766	0.067789	9.812243	-0.008713	-0.000094	-0.004037
17111	13557661	-0.001294	0.069033	9.810694	-0.007331	-0.002906	-0.000216
17112	13557686	-0.030337	0.078484	9.790237	-0.004514	0.000890	-0.002182
17113	13557711	-0.045099	0.100772	9.813793	-0.005423	0.001524	-0.001024
17114	13557736	-0.034419	0.059291	9.800805	-0.007686	-0.002339	-0.004631
17115	13557761	-0.030308	0.072627	9.801741	-0.003718	-0.003673	0.003299
17116	13557786	-0.037110	0.082124	9.798890	-0.000188	-0.002196	-0.003690
17117	13557811	-0.033639	0.106009	9.817566	-0.005254	-0.003964	-0.000927
17118	13557836	-0.055400	0.097016	9.798021	-0.006683	-0.001086	-0.000589
17119	13557861	-0.026980	0.063056	9.811794	-0.003389	0.001813	-0.003853
17120	13557886	-0.042288	0.084075	9.786935	-0.006199	-0.000565	-0.002956
17121	13557911	-0.014206	0.086302	9.787752	-0.007281	-0.002573	0.000751
17122	13557936	-0.003129	0.063392	9.806873	-0.005007	-0.001436	0.002030
17123	13557961	-0.030748	0.071143	9.804614	-0.004886	-0.004035	-0.006379
17124	13557986	-0.039332	0.078492	9.786440	-0.001745	-0.005645	0.000021
17125	13558011	-0.031911	0.080600	9.808933	-0.001347	-0.000350	-0.006624
17126	13558036	-0.044576	0.124152	9.772547	-0.004342	-0.004530	-0.001828
17127	13558061	-0.011722	0.073963	9.791577	-0.003922	-0.001295	0.000814
17128	13558086	-0.019567	0.075793	9.817507	-0.008254	0.002125	-0.000376
17129	13558111	-0.025562	0.082918	9.785892	-0.003316	-0.004256	0.000222
17130	13558136	-0.016034	0.069599	9.793522	-0.006366	0.002927	-0.000314
17131	13558161	-0.031891	0.069901	9.824278	-0.004759	0.001089	0.001347
17132	13558186	-0.034108	0.073027	9.804149	-0.004888	-0.003316	-0.000730
17133	13558211	-0.034310	0.087960	9.791690	-0.000903	0.002243	-0.003342
17134	13558236	-0.022872	0.077037	9.824696	-0.010495	-0.004318	-0.001428
17135	13558261	-0.030804	0.097027	9.819462	-0.004038	0.000523	0.002104
17136	13558286	-0.014735	0.076009	9.810283	-0.006525	0.000013	-0.001356
17137	13558311	-0.028646	0.085466	9.806520	0.000469	-0.000773	-0.005090
17138	13558336	-0.004335	0.075906	9.824617	-0.004138	0.001287	-0.001606
17139	13558361	-0.000193	0.064990	9.798712	-0.003761	-0.004254	0.003235
17140	13558386	-0.017518	0.056140	9.834744	-0.006622	0.000983	0.000446
17141	13558411	-0.043799	0.069426	9.816665	-0.001271	0.004187	0.001739
17142	13558436	-0.041457	0.084329	9.801311	-0.008452	0.001720	-0.006720
17143	13558461	-0.005030	0.072117	9.795380	-0.002877	-0.001977	0.000872
17144	13558486	-0.031691	0.057508	9.824278	-0.008672	-0.002933	0.000048
17145	13558511	-0.004886	0.088334	9.816935	-0.009456	-0.002745	-0.000526
17146	13558536	-0.040982	0.090097	9.797956	-0.005142	-0.001577	-0.003283
17147	13558561	-0.030869	0.081305	9.790714	-0.005414	-0.000738	-0.001106
17148	13558586	-0.026861	0.073359	9.786852	-0.008124	-0.004537	-0.003551
17149	13558611	-0.028240	0.084317	9.816106	-0.004365	0.002380	-0.003015
17150	13558636	-0.046171	0.086226	9.796061	-0.006738	-0.003597	0.000556
17151	13558661	-0.048343	0.089265	9.817643	-0.003375	0.004022	0.000717
17152	13558686	-0.018573	0.074909	9.817006	-0.005172	-0.000219	-0.000271
17153	13558711	-0.036291	0.083326	9.810402	-0.006133	0.004035	0.000016
17154	13558736	-0.035211	0.072942	9.812307	-0.002049	0.002560	0.002114
17155	13558761	-0.043767	0.084413	9.795577	-0.002404	-0.002687	0.001508
17156	13558786	-0.038111	0.078494	9.814723	-0.005797	-0.000480	0.002560
17157	13558811	-0.055471	0.100233	9.804256	-0.005969	0.000346	-0.002757
17158	13558836	-0.032842	0.075298	9.811814	-0.004403	-0.000268	0.000177
17159	13558861	-0.032686	0.074582	9.795995	-0.006364	-0.001536	-0.003539
17160	13558886	-0.019193	0.088612	9.818925	-0.009079	-0.002418	-0.001870
17161	13558911	-0.030372	0.067043	9.825219	-0.006799	-0.003734	-0.001435
17162	13558936	-0.012116	0.092249	9.810268	-0.001276	0.004047	-0.002950
17163	13558961	-0.015502	0.068144	9.798777	-0.003235	-0.001022	-0.002396
17164	13558986	-0.037846	0.102519	9.795542	-0.005148	0.000818	-0.002244
17165	13559011	-0.040321	0.097718	9.827663	-0.005481	-0.000805	-0.002187
17166	13559036	-0.007978	0.081954	9.797306	-0.008139	-0.004020	-0.002010
17167	13559061	-0.019910	0.091561	9.784897	-0.004025	-0.008731	-0.002684
17168	13559086	-0.019483	0.084707	9.798330	-0.001834	-0.000806	-0.002454
17169	13559111	-0.012451	0.065528	9.784384	-0.005642	-0.008312	-0.004160
17170	13559136	-0.010253	0.073635	9.781506	-0.006865	0.000528	-0.001416
17171	13559161	-0.011367	0.078957	9.804990	-0.004902	-0.002402	0.003313
17172	13559186	-0.005979	0.078430	9.782924	-0.005502	-0.002684	-0.004897
17173	13559211	-0.040231	0.068362	9.793158	-0.005306	-0.002289	-0.002584
17174	13559236	-0.016313	0.085401	9.814133	-0.009006	0.001130	-0.003774
17175	13559261	-0.042219	0.068242	9.802759	-0.001675	0.000757	0.000760
17176	13559286	-0.014698	0.049414	9.778179	-0.006990	0.000466	0.001022
17177	13559311	-0.012097	0.061139	9.793973	-0.002837	0.003062	0.001796
17178	13559336	-0.003370	0.070927	9.839948	-0.006153	-0.003524	0.002091
17179	13559361	-0.038120	0.061481	9.842999	-0.005859	0.001059	-0.004044
17180	13559386	-0.037969	0.064060	9.828139	-0.004224	-0.002669	-0.006692
17181	13559411	-0.033735	0.070386	9.819015	-0.007319	-0.001554	-0.004245
17182	13559436	-0.011636	0.034184	9.787750	-0.003119	-0.002900	-0.002597
17183	13559461	-0.050830	0.066522	9.809990	-0.007136	0.000906	-0.004491
17184	13559486	-0.036906	0.052296	9.820962	-0.005352	0.003068	-0.004993
17185	13559511	-0.018135	0.084964	9.811725	-0.005211	-0.003253	0.000356
17186	13559536	-0.014362	0.089440	9.805971	-0.001092	-0.002091	-0.004068
17187	13559561	-0.005365	0.058904	9.791070	-0.002085	0.001259	0.000308
17188	13559586	-0.003123	0.064912	9.801602	-0.002313	0.000481	0.000626
17189	13559611	-0.024333	0.081179	9.808904	-0.002292	0.002043	0.001854
17190	13559636	-0.039368	0.110607	9.793146	-0.004190	0.001159	-0.000773
17191	13559661	-0.027995	0.072710	9.803647	0.002101	0.000693	-0.000407
17192	13559686	-0.015276	0.085512	9.810763	-0.002053	-0.003648	0.001761
17193	13559711	-0.032862	0.084066	9.793605	-0.006846	0.002010	-0.001016
17194	13559736	-0.022495	0.096196	9.791631	-0.002198	0.001267	0.002556
17195	13559761	-0.039054	0.112729	9.809918	-0.003211	0.000533	0.001846
17196	13559786	-0.057661	0.092312	9.799475	-0.001340	-0.002484	-0.004195
17197	13559811	-0.032729	0.078237	9.802230	-0.007528	-0.004838	0.001770
17198	13559836	-0.016901	0.059360	9.812220	-0.005354	-0.002807	-0.000605
17199	13559861	-0.010079	0.077956	9.814578	-0.002952	0.004336	-0.003518
17200	13559886	-0.018995	0.082916	9.789212	-0.005375	-0.000031	-0.000778
17201	13559911	-0.010332	0.078889	9.779109	-0.006498	0.003244	-0.001137
17202	13559936	-0.035737	0.077851	9.826209	-0.009158	-0.006175	-0.002848
17203	13559961	-0.034293	0.079103	9.809901	-0.004317	0.000827	-0.001922
17204	13559986	-0.025279	0.099630	9.777732	-0.004093	-0.002477	-0.006180
17205	13560011	-0.040014	0.078441	9.814246	-0.007746	-0.001617	0.003843
17206	13560036	-0.036115	0.078747	9.800317	-0.005469	-0.002871	0.002098
17207	13560061	-0.028157	0.088776	9.803642	-0.003612	-0.003161	0.000295
17208	13560086	-0.004089	0.067604	9.808798	-0.007260	-0.003433	-0.002649
17209	13560111	-0.017573	0.085914	9.783941	-0.000480	0.001283	0.001857
17210	13560136	-0.008509	0.070152	9.826543	-0.005916	-0.004944	0.003242
17211	13560161	-0.028410	0.074515	9.803642	-0.006440	-0.007223	-0.002158
17212	13560186	-0.049172	0.101519	9.793674	-0.000721	-0.003509	-0.000863
17213	13560211	-0.019696	0.064872	9.794987	0.001371	-0.000361	0.002669
17214	13560236	-0.055683	0.075474	9.811444	-0.005239	-0.002421	-0.002770
17215	13560261	-0.049262	0.075174	9.772600	-0.008042	0.001410	0.000206
17216	13560286	-0.041081	0.091074	9.800350	-0.002028	0.001509	-0.000837
17217	13560311	-0.027805	0.086582	9.824730	-0.003850	0.001851	-0.006795
17218	13560336	-0.002821	0.092259	9.783387	-0.000870	-0.003387	-0.006837
17219	13560361	-0.001123	0.065018	9.798235	-0.001153	-0.004293	-0.003183
17220	13560386	-0.030452	0.076827	9.805573	-0.005476	0.001459	0.001289
17221	13560411	-0.037691	0.092997	9.798886	-0.005284	-0.003065	-0.001107
17222	13560436	-0.034464	0.100629	9.795518	-0.006846	-0.000520	-0.005707
17223	13560461	-0.014932	0.096389	9.806928	-0.010355	-0.000972	-0.006023
17224	13560486	-0.017513	0.105295	9.816040	-0.006895	-0.000447	-0.001092
17225	13560511	-0.031183	0.098682	9.805091	-0.004332	0.001340	-0.002240
17226	13560536	-0.051574	0.104502	9.776911	-0.008661	0.000623	-0.001402
17227	13560561	-0.020452	0.088553	9.791620	-0.005397	-0.001656	-0.003669
17228	13560586	-0.017884	0.056435	9.819412	-0.001153	0.002041	-0.002828
17229	13560611	-0.051222	0.096555	9.804721	-0.005528	0.004999	-0.002027
17230	13560636	-0.044022	0.104253	9.800841	-0.002973	-0.003295	-0.004198
17231	13560661	-0.039145	0.101150	9.792180	-0.002643	-0.005473	0.000989
17232	13560686	-0.051487	0.085176	9.802320	-0.005318	0.002690	0.001362
17233	13560711	-0.012914	0.080232	9.816027	-0.003457	0.000127	-0.002515
17234	13560736	-0.028921	0.075050	9.801733	-0.001380	-0.001194	-0.003679
17235	13560761	-0.038733	0.098271	9.792187	-0.005798	0.000985	-0.005259
17236	13560786	-0.019953	0.083756	9.797849	-0.004162	-0.000146	-0.003277
17237	13560811	-0.031148	0.102586	9.797891	-0.003117	-0.002776	-0.003099
17238	13560836	-0.046179	0.118498	9.798932	-0.001556	0.000879	0.001532
17239	13560861	-0.036804	0.086070	9.816625	-0.006051	0.001118	-0.000700
17240	13560886	-0.022901	0.087354	9.804090	-0.007868	-0.002149	-0.000457
17241	13560911	-0.028066	0.074797	9.813704	-0.009000	-0.001076	-0.005963
17242	13560936	-0.052094	0.095510	9.806158	-0.006340	0.002147	-0.001460
17243	13560961	-0.022852	0.095461	9.776765	-0.002499	-0.001986	-0.001879
17244	13560986	-0.025396	0.085141	9.822800	-0.008160	-0.001056	-0.002569
17245	13561011	-0.026116	0.074887	9.809377	-0.010201	-0.003548	-0.003794
17246	13561036	-0.034193	0.099774	9.821404	-0.004533	0.002119	0.002120
17247	13561061	-0.030097	0.071655	9.834332	-0.006370	0.002980	-0.003384
17248	13561086	-0.037333	0.101950	9.799847	-0.008664	-0.001647	-0.003655
17249	13561111	-0.029846	0.114075	9.790702	-0.004712	-0.000671	-0.000779
17250	13561136	-0.032994	0.100742	9.791203	-0.007355	-0.004265	-0.000665
17251	13561161	-0.022663	0.077124	9.792580	-0.006512	-0.004838	-0.003041
17252	13561186	-0.041248	0.101816	9.809925	-0.004144	-0.000463	-0.002253
17253	13561211	-0.031924	0.085418	9.800787	-0.006385	-0.000247	0.001220
17254	13561236	-0.053703	0.111632	9.809036	-0.004178	-0.003442	-0.001688
17255	13561261	-0.020171	0.084720	9.829473	-0.001043	-0.001709	-0.004640
17256	13561286	-0.033129	0.102248	9.813727	-0.006247	-0.004831	0.000162
17257	13561311	-0.033081	0.089854	9.818049	-0.010909	0.002904	-0.002155
17258	13561336	-0.017267	0.078466	9.838575	-0.000618	-0.002204	0.001706
17259	13561361	-0.030532	0.089100	9.810830	-0.003290	-0.005482	-0.000550
17260	13561386	-0.033111	0.106808	9.802701	-0.003044	-0.003168	-0.004511
17261	13561411	-0.037650	0.088732	9.795059	-0.007088	-0.000583	-0.002505
17262	13561436	-0.047540	0.113112	9.808995	-0.006270	-0.002512	-0.006361
17263	13561461	-0.022318	0.087760	9.781559	-0.004947	-0.001374	0.001526
17264	13561486	-0.031274	0.079479	9.784492	-0.006507	-0.000238	0.002761
17265	13561511	-0.038051	0.086356	9.797456	-0.005791	-0.005141	-0.000155
17266	13561536	-0.048363	0.099300	9.812851	-0.003976	-0.001158	0.005442
17267	13561561	-0.027705	0.086781	9.810824	-0.004505	-0.001442	-0.002192
17268	13561586	-0.030496	0.079623	9.811801	-0.001824	-0.000872	-0.000598
17269	13561611	0.004059	0.065999	9.799642	-0.003448	-0.000520	-0.003219
17270	13561636	-0.001501	0.045250	9.817404	-0.002249	-0.001988	-0.003232
17271	13561661	-0.022199	0.070823	9.800257	-0.007765	-0.001630	-0.003086
17272	13561686	-0.032019	0.084573	9.828103	-0.001703	-0.004879	-0.000490
17273	13561711	-0.031191	0.089264	9.828575	-0.008011	-0.001428	0.002879
17274	13561736	-0.042331	0.079000	9.806110	-0.008723	-0.001709	-0.002114
17275	13561761	-0.041121	0.100164	9.793634	-0.003742	-0.000705	0.004157
17276	13561786	-0.028579	0.085499	9.801729	-0.004061	-0.002980	0.000297
17277	13561811	-0.015697	0.084298	9.790637	-0.010240	0.004014	-0.002404
17278	13561836	-0.036537	0.102697	9.815653	-0.005645	0.000411	-0.002888
17279	13561861	-0.051585	0.094040	9.809507	-0.006978	-0.002323	-0.002380
17280	13561886	-0.069008	0.114452	9.797133	-0.005598	0.003059	-0.002550
17281	13561911	-0.026037	0.091607	9.838617	-0.002639	-0.001408	-0.001945
17282	13561936	-0.014142	0.072295	9.801181	-0.009209	-0.000624	-0.004040
17283	13561961	-0.050630	0.094469	9.812375	-0.008927	-0.003329	-0.002062
17284	13561986	-0.003798	0.074706	9.807833	-0.009567	0.002925	-0.002995
17285	13562011	-0.017184	0.087876	9.809329	-0.003842	-0.004143	-0.001760
17286	13562036	-0.013598	0.069121	9.796860	-0.007629	-0.001621	-0.000845
17287	13562061	-0.007038	0.068006	9.815526	-0.000608	-0.001049	-0.002395
17288	13562086	-0.032830	0.077202	9.806545	-0.009616	0.000207	-0.004674
17289	13562111	-0.016293	0.080977	9.821786	-0.008327	0.000112	-0.000574
17290	13562136	-0.020970	0.092365	9.788266	-0.009660	-0.002185	-0.002123
17291	13562161	-0.059390	0.075200	9.796132	-0.004223	-0.000544	-0.008281
17292	13562186	-0.046296	0.094356	9.797967	-0.003058	-0.002642	-0.002329
17293	13562211	-0.031044	0.082315	9.817071	-0.006504	-0.000635	0.000124
17294	13562236	0.007670	0.079887	9.793396	-0.003698	0.001478	-0.003919
17295	13562261	-0.027708	0.088192	9.810831	-0.004821	-0.001575	-0.002061
17296	13562286	-0.041456	0.081890	9.810895	-0.001018	-0.004086	0.001888
17297	13562311	-0.023201	0.062003	9.824717	0.000083	-0.000384	0.000048
17298	13562336	-0.023197	0.063511	9.811772	-0.006686	0.005046	-0.002986
17299	13562361	-0.048341	0.091561	9.819563	-0.007929	0.001992	-0.001138
17300	13562386	-0.005670	0.080936	9.806890	-0.002711	-0.003609	-0.002788
17301	13562411	-0.039058	0.110556	9.827174	-0.006016	-0.001985	-0.001553
17302	13562436	-0.038747	0.067458	9.794580	-0.001790	-0.004230	-0.000483
17303	13562461	-0.023778	0.072497	9.814169	-0.006083	0.002018	-0.001854
17304	13562486	-0.031496	0.099042	9.783041	-0.001082	-0.000481	-0.004183
17305	13562511	-0.016534	0.061092	9.816541	-0.011544	0.003162	0.002082
17306	13562536	-0.029309	0.056121	9.827143	-0.001346	-0.003839	0.001054
17307	13562561	-0.045418	0.099590	9.797974	-0.003040	-0.001036	-0.002962
17308	13562586	-0.017585	0.073274	9.803116	-0.002575	0.004935	0.000399
17309	13562611	-0.030682	0.061762	9.799337	-0.004140	-0.000589	-0.000653
17310	13562636	-0.010471	0.078958	9.804983	-0.007297	0.002129	0.000267
17311	13562661	-0.008338	0.070713	9.794927	0.002344	-0.003454	-0.003444
17312	13562686	-0.018259	0.070755	9.780592	-0.000547	-0.000916	-0.001495
17313	13562711	0.001919	0.083439	9.803965	-0.005396	-0.001457	-0.001554
17314	13562736	-0.019300	0.065683	9.796889	-0.006621	0.000715	-0.003527
17315	13562761	-0.028027	0.074908	9.806521	-0.009094	0.000028	-0.003074
17316	13562786	-0.045724	0.083276	9.805645	-0.006668	0.000003	-0.005189
17317	13562811	-0.037958	0.072674	9.791721	-0.007139	0.002970	-0.004089
17318	13562836	-0.063541	0.103156	9.794225	-0.005169	0.001258	-0.004607
17319	13562861	-0.041049	0.089548	9.810894	0.003347	-0.002731	-0.003372
17320	13562886	-0.028919	0.095637	9.819943	-0.003599	0.004782	-0.001203
17321	13562911	-0.061935	0.079720	9.808136	-0.004926	0.002439	0.001618
17322	13562936	-0.036390	0.059136	9.810883	-0.002320	-0.003599	-0.002278
17323	13562961	-0.042388	0.087744	9.793653	-0.007327	0.001360	0.002131
17324	13562986	-0.045807	0.091728	9.810437	-0.007902	-0.003374	-0.002320
17325	13563011	-0.038536	0.080084	9.802254	-0.008330	-0.001372	0.003076
17326	13563036	-0.044399	0.080537	9.832968	-0.003913	-0.001484	0.000501
17327	13563061	-0.043310	0.065814	9.832489	-0.003210	-0.001672	-0.002073
17328	13563086	-0.033888	0.090237	9.800315	0.000764	0.000864	0.003831
17329	13563111	0.002069	0.075552	9.792948	-0.002781	0.000389	-0.007060
17330	13563136	-0.027477	0.066667	9.821374	-0.003412	-0.003684	-0.003368
17331	13563161	-0.031848	0.070382	9.825219	-0.004797	-0.004093	-0.000794
17332	13563186	-0.013439	0.058130	9.802610	-0.004451	-0.003517	-0.005990
17333	13563211	-0.035626	0.081102	9.803678	-0.001554	-0.005582	0.000730
17334	13563236	-0.008532	0.083502	9.789641	-0.007249	0.002515	-0.001143
17335	13563261	0.014105	0.058496	9.802956	-0.002453	-0.001600	-0.003490
17336	13563286	-0.016010	0.060578	9.823240	-0.007458	-0.001231	-0.001541
17337	13563311	-0.008913	0.074899	9.794434	-0.006597	0.000072	-0.001863
17338	13563336	-0.019860	0.067855	9.809835	-0.008944	-0.000484	-0.000770
17339	13563361	-0.037084	0.083575	9.797454	-0.000857	-0.002985	0.002535
17340	13563386	0.011120	0.064877	9.815913	-0.002769	-0.003275	0.002982
17341	13563411	-0.019474	0.081299	9.803111	-0.003004	-0.004061	0.001124
17342	13563436	-0.016241	0.088525	9.802139	-0.000966	-0.001766	-0.001371
17343	13563461	-0.020033	0.095221	9.791125	-0.004746	-0.003894	0.000231
17344	13563486	-0.009792	0.066699	9.804994	-0.001898	-0.000291	0.001079
17345	13563511	-0.024500	0.066504	9.802659	-0.007185	-0.005753	-0.001505
17346	13563536	-0.034068	0.103287	9.806058	-0.009313	-0.003013	-0.001100
17347	13563561	-0.012410	0.074002	9.816505	-0.008139	0.002706	0.001109
17348	13563586	-0.015889	0.057511	9.811259	-0.004451	-0.002730	0.000751
17349	13563611	-0.024544	0.062839	9.795963	-0.004244	0.005099	0.002843
17350	13563636	-0.030791	0.071631	9.803666	-0.005175	-0.000027	0.000899
17351	13563661	-0.014514	0.063211	9.810763	-0.003631	-0.004320	0.004329
17352	13563686	-0.025906	0.084012	9.834297	-0.005367	-0.002362	-0.002006
17353	13563711	-0.016118	0.059962	9.834750	-0.005849	0.000998	0.000834
17354	13563736	-0.031527	0.060388	9.796947	-0.002821	-0.003792	0.000742
17355	13563761	-0.019570	0.055424	9.786344	-0.003998	0.001286	0.002120
17356	13563786	-0.047650	0.068362	9.821963	-0.000447	0.004460	0.002123
17357	13563811	-0.016328	0.055665	9.802153	-0.006802	-0.001347	-0.000010
17358	13563836	-0.022279	0.069134	9.817989	-0.007360	-0.001748	0.001210
17359	13563861	-0.028265	0.090613	9.805090	-0.003564	0.003684	0.000785
17360	13563886	-0.038377	0.100924	9.810406	-0.001423	0.000882	0.000636
17361	13563911	-0.037299	0.054960	9.805131	-0.002488	-0.000046	0.000955
17362	13563936	-0.041061	0.059747	9.795083	-0.007585	-0.001238	-0.001284
17363	13563961	-0.041059	0.093897	9.799387	-0.003807	-0.003047	-0.002012
17364	13563986	-0.027044	0.082414	9.787816	-0.001509	-0.000668	0.001521
17365	13564011	-0.008131	0.049684	9.797795	-0.008361	-0.000933	-0.002570
17366	13564036	-0.027811	0.084130	9.828085	-0.003241	0.001954	0.003786
17367	13564061	-0.023832	0.081515	9.812715	-0.010687	-0.002396	-0.004812
17368	13564086	-0.026115	0.083187	9.798366	-0.000846	-0.003833	-0.003628
17369	13564111	-0.028709	0.094967	9.798844	-0.007339	-0.000581	-0.000387
17370	13564136	-0.049072	0.110580	9.819086	-0.004306	0.002894	-0.000051
17371	13564161	-0.043329	0.087368	9.791255	-0.003405	0.001995	-0.005703
17372	13564186	-0.017184	0.071903	9.831869	-0.001606	0.000492	0.000566
17373	13564211	-0.045753	0.087579	9.804680	-0.004299	-0.001961	-0.003798
17374	13564236	0.004302	0.046619	9.797245	-0.000876	0.001533	0.000182
17375	13564261	-0.041904	0.090175	9.789796	-0.006856	-0.003812	-0.000405
17376	13564286	-0.013138	0.075373	9.793025	-0.003028	-0.001675	-0.003675
17377	13564311	-0.009635	0.092988	9.791567	-0.005648	0.000608	-0.000389
17378	13564336	-0.028664	0.079005	9.823788	-0.001994	0.000483	-0.000589
17379	13564361	-0.025756	0.088931	9.796440	-0.002140	0.000997	-0.000706
17380	13564386	-0.029830	0.103326	9.812278	-0.002116	0.000159	-0.000525
17381	13564411	-0.042962	0.094975	9.790289	-0.002429	0.000225	0.003517
17382	13564436	-0.043210	0.104975	9.813304	-0.006357	0.000854	0.001417
17383	13564461	-0.023274	0.084803	9.783961	-0.007883	0.000441	0.000709
17384	13564486	-0.032693	0.081514	9.777780	-0.004181	-0.001504	-0.003864
17385	13564511	-0.041224	0.072812	9.786934	-0.000291	-0.000642	0.002290
17386	13564536	-0.013717	0.079920	9.797819	-0.009409	-0.002104	-0.000133
17387	13564561	-0.032903	0.081942	9.811819	-0.001547	-0.001378	0.002481
17388	13564586	-0.011661	0.066283	9.800201	-0.002314	-0.001863	-0.003290
17389	13564611	-0.029117	0.097500	9.791173	-0.004168	-0.001954	-0.002195
17390	13564636	-0.019436	0.070052	9.820856	-0.008801	-0.001523	-0.005646
17391	13564661	-0.037209	0.084618	9.817584	-0.005704	-0.001776	-0.000072
17392	13564686	-0.020246	0.069188	9.786828	-0.004680	0.000434	0.001465
17393	13564711	-0.021296	0.066425	9.812718	-0.002849	0.001173	-0.000645
17394	13564736	-0.035422	0.062770	9.788831	-0.007547	0.002132	0.000465
17395	13564761	-0.019062	0.051106	9.792584	-0.001395	-0.002941	-0.006573
17396	13564786	-0.005231	0.044034	9.804970	-0.000305	0.001338	-0.004055
17397	13564811	-0.010448	0.052237	9.788698	-0.003438	-0.002714	-0.001305
17398	13564836	-0.030017	0.087457	9.798384	-0.002700	-0.000063	-0.005399
17399	13564861	-0.036364	0.084393	9.830524	-0.009945	-0.001808	-0.007892
17400	13564886	-0.037196	0.085252	9.811832	-0.004156	-0.004271	0.000553
17401	13564911	-0.015814	0.092886	9.792085	-0.004922	0.001715	-0.002946
17402	13564936	-0.007662	0.084133	9.809775	-0.006506	-0.000373	0.001347
17403	13564961	-0.017885	0.067087	9.804070	-0.002593	-0.002496	0.004336
17404	13564986	-0.032031	0.064286	9.785445	-0.005515	-0.001715	-0.000592
17405	13565011	-0.004983	0.049222	9.828944	-0.008208	0.000498	-0.000063
17406	13565036	-0.023173	0.075596	9.800257	-0.004658	-0.004669	-0.000669
17407	13565061	-0.028270	0.097348	9.798844	-0.007248	0.000714	0.000265
17408	13565086	-0.018045	0.077448	9.805508	-0.008625	-0.000349	0.001091
17409	13565111	-0.035750	0.080432	9.814699	-0.007235	-0.001742	0.001146
17410	13565136	-0.024662	0.093595	9.768142	-0.006650	-0.002584	-0.005206
17411	13565161	-0.035244	0.081935	9.811819	-0.002083	-0.002688	-0.000025
17412	13565186	-0.021605	0.069334	9.778208	-0.001867	0.000419	-0.002255
17413	13565211	-0.016170	0.079407	9.805017	-0.002822	-0.000061	-0.005661
17414	13565236	-0.048843	0.079297	9.782650	-0.008069	-0.002347	-0.003789
17415	13565261	-0.016863	0.068742	9.792078	-0.000761	-0.003552	0.007087
17416	13565286	-0.041270	0.066583	9.815694	-0.003682	-0.003168	-0.001886
17417	13565311	-0.038771	0.103857	9.800328	-0.005279	-0.003524	-0.003739
17418	13565336	-0.011433	0.090329	9.804983	-0.007150	-0.006524	0.002339
17419	13565361	-0.052452	0.084708	9.800887	-0.002778	0.000985	0.000381
17420	13565386	-0.012517	0.081016	9.830403	-0.000446	-0.000015	-0.001620
17421	13565411	-0.043842	0.082240	9.812821	-0.006425	-0.001080	0.000578
17422	13565436	-0.014725	0.066247	9.825624	-0.007671	0.001797	-0.001788
17423	13565461	-0.018655	0.087053	9.798791	-0.004128	0.000891	-0.004175
17424	13565486	-0.045757	0.086618	9.804691	-0.005060	-0.002033	-0.002325
17425	13565511	-0.035319	0.089165	9.800323	-0.006445	0.003502	-0.002222
17426	13565536	-0.017671	0.080574	9.820845	-0.006028	-0.003989	-0.002077
17427	13565561	-0.011337	0.065126	9.813160	-0.001876	0.003204	0.002955
17428	13565586	-0.048355	0.095982	9.809978	-0.003621	0.003558	0.001426
17429	13565611	-0.034901	0.089827	9.819491	-0.007640	-0.003567	-0.002837
17430	13565636	-0.029052	0.084302	9.818025	-0.001572	-0.007275	-0.003769
17431	13565661	-0.029719	0.089581	9.812273	-0.005516	0.002414	-0.003393
17432	13565686	-0.010257	0.071977	9.794439	-0.010544	-0.001037	-0.004674
17433	13565711	-0.032967	0.089150	9.804143	-0.004882	0.000423	-0.004493
17434	13565736	-0.016304	0.092206	9.802135	-0.007144	-0.000906	-0.001222
17435	13565761	-0.026273	0.098623	9.781106	-0.004083	0.001934	0.000776
17436	13565786	-0.036312	0.098851	9.791208	-0.002812	-0.001925	0.000431
17437	13565811	-0.023314	0.087591	9.790672	-0.004323	-0.000590	0.002751
17438	13565836	-0.032473	0.096964	9.788312	-0.007112	-0.001685	-0.001161
17439	13565861	-0.034740	0.087006	9.787859	-0.003590	0.000322	-0.000131
17440	13565886	-0.025358	0.087284	9.809859	-0.005151	0.001067	0.000067
17441	13565911	-0.046743	0.078353	9.817637	-0.006221	0.002734	0.001425
17442	13565936	-0.026372	0.057399	9.811312	-0.001203	-0.000611	-0.002198
17443	13565961	-0.030046	0.076158	9.818985	-0.007944	0.002377	-0.000818
17444	13565986	-0.024452	0.067265	9.787321	-0.001667	-0.001837	0.000618
17445	13566011	-0.023514	0.072432	9.787316	-0.005348	-0.005138	-0.002274
17446	13566036	-0.010331	0.075278	9.802121	-0.003508	-0.002392	-0.000663
17447	13566061	-0.020084	0.065535	9.780598	-0.001976	-0.002298	-0.000669
17448	13566086	-0.011690	0.067169	9.803087	-0.004120	-0.003107	0.001580
17449	13566111	-0.064755	0.077587	9.817721	-0.007273	-0.002909	-0.001615
17450	13566136	-0.032583	0.083426	9.839125	-0.004451	-0.003050	-0.000918
17451	13566161	-0.032000	0.057067	9.794559	-0.006767	-0.000574	-0.001222
17452	13566186	-0.041597	0.093632	9.811850	-0.007586	-0.002977	0.000180
17453	13566211	-0.023679	0.067180	9.819431	-0.007764	-0.003766	-0.003803
17454	13566236	-0.045448	0.091661	9.820509	-0.002606	-0.000766	-0.003473
17455	13566261	-0.019732	0.081100	9.845783	-0.005260	-0.001843	-0.002581
17456	13566286	-0.000536	0.089633	9.794868	-0.009756	0.000994	0.002316
17457	13566311	-0.000352	0.070568	9.805417	-0.003549	0.000969	-0.001416
17458	13566336	-0.020437	0.088195	9.785385	-0.004199	0.003083	-0.004220
17459	13566361	-0.016142	0.077490	9.806450	-0.003950	-0.000724	-0.003417
17460	13566386	-0.011565	0.093154	9.808822	-0.004223	-0.002143	-0.001045
17461	13566411	-0.006628	0.095900	9.849061	-0.005473	-0.002867	0.003506
17462	13566436	-0.024833	0.071307	9.829982	-0.005968	0.000544	0.001152
17463	13566461	-0.030749	0.090123	9.836252	-0.004074	-0.000787	-0.002445
17464	13566486	-0.018730	0.087262	9.818930	-0.001423	-0.001387	-0.001691
17465	13566511	-0.020906	0.080757	9.802170	-0.005665	-0.000879	0.000377
17466	13566536	-0.022370	0.097184	9.782518	-0.005420	-0.007078	-0.002033
17467	13566561	-0.033411	0.094497	9.794076	-0.006840	-0.002317	0.000182
17468	13566586	-0.038849	0.096514	9.812799	-0.010124	0.002337	-0.002930
17469	13566611	-0.073669	0.108114	9.803392	-0.005978	0.001389	0.002965
17470	13566636	-0.059211	0.097981	9.795631	-0.005746	-0.000229	0.001600
17471	13566661	-0.046650	0.106930	9.839190	-0.005110	-0.004226	0.001390
17472	13566686	-0.038825	0.098232	9.827658	-0.007366	-0.006147	-0.002915
17473	13566711	-0.060954	0.114802	9.810987	-0.007132	-0.001429	-0.005843
17474	13566736	-0.047804	0.088668	9.824337	-0.004576	-0.003125	-0.003484
17475	13566761	-0.041807	0.076706	9.802754	-0.007524	-0.000711	0.001028
17476	13566786	-0.042016	0.099668	9.791721	-0.004728	-0.002412	-0.002003
17477	13566811	-0.046720	0.095743	9.798927	-0.005326	-0.006048	-0.004201
17478	13566836	-0.011415	0.072071	9.821298	-0.005686	-0.002426	-0.001305
17479	13566861	-0.033921	0.078268	9.830512	-0.007205	-0.002909	-0.001234
17480	13566886	-0.019802	0.095768	9.815581	-0.007947	0.002439	-0.002804
17481	13566911	-0.021612	0.080342	9.832371	-0.003828	0.001937	0.001158
17482	13566936	-0.015162	0.065741	9.829463	-0.004971	-0.002483	0.000364
17483	13566961	-0.033504	0.096386	9.796966	-0.003931	0.003165	0.001037
17484	13566986	-0.009475	0.093293	9.773827	-0.000748	-0.000601	-0.000855
17485	13567011	0.006052	0.062857	9.787649	-0.003962	-0.000337	-0.001103
17486	13567036	-0.021756	0.074211	9.794982	-0.007878	-0.000019	-0.004168
17487	13567061	-0.033462	0.088392	9.822829	-0.003940	-0.004849	0.000997
17488	13567086	-0.027012	0.071280	9.797891	-0.008287	0.002621	-0.005758
17489	13567111	-0.016099	0.061505	9.827071	-0.004636	0.003152	0.000143
17490	13567136	-0.030160	0.101755	9.789731	-0.003247	-0.000778	-0.004244
17491	13567161	-0.022270	0.079899	9.796424	-0.009041	-0.001912	-0.003143
17492	13567186	-0.011056	0.100263	9.780550	-0.002854	0.001170	-0.000326
17493	13567211	-0.017482	0.088056	9.771008	0.002278	-0.000992	0.000419
17494	13567236	-0.033780	0.079748	9.798879	-0.003025	0.000589	0.000183
17495	13567261	-0.013222	0.065477	9.818917	-0.003089	0.000525	-0.002314
17496	13567286	-0.039136	0.090422	9.810402	-0.004797	-0.004162	-0.001568
17497	13567311	-0.018920	0.051715	9.842422	-0.008398	-0.001369	0.003324
17498	13567336	-0.033009	0.090945	9.809418	-0.005567	-0.000304	-0.006360
17499	13567361	-0.023223	0.070122	9.819424	-0.002293	-0.004563	-0.000934
17500	13567386	-0.030411	0.090011	9.778728	-0.007719	-0.000717	0.000453
17501	13567411	-0.036428	0.070354	9.788825	-0.005250	-0.002028	0.001395
17502	13567436	-0.041419	0.086923	9.790768	-0.003837	0.000259	0.001538
17503	13567461	-0.029326	0.063299	9.823776	-0.002980	-0.006501	0.005986
17504	13567486	-0.022659	0.098498	9.822776	-0.006723	-0.004007	-0.002907
17505	13567511	0.003386	0.077008	9.820260	-0.005393	-0.006114	-0.004530
17506	13567536	-0.030141	0.095747	9.811796	-0.003214	-0.008075	-0.002682
17507	13567561	-0.016759	0.077963	9.832819	-0.009197	-0.002745	-0.000522
17508	13567586	-0.034794	0.078545	9.812303	-0.008313	0.001523	-0.003640
17509	13567611	-0.037467	0.110564	9.799361	-0.001827	-0.000742	-0.000465
17510	13567636	-0.026415	0.098793	9.799309	-0.006399	0.002149	0.002317
17511	13567661	-0.009706	0.087204	9.830862	-0.000149	-0.003307	-0.000355
17512	13567686	-0.017062	0.063421	9.824212	-0.006977	0.001806	-0.005119
17513	13567711	-0.036187	0.083456	9.801753	-0.005427	-0.001021	-0.010075
17514	13567736	-0.035196	0.066992	9.825738	-0.005211	0.000414	-0.005515
17515	13567761	-0.032885	0.086450	9.791686	-0.010003	0.002728	0.000024
17516	13567786	-0.045682	0.075826	9.797503	-0.007898	0.005162	-0.000097
17517	13567811	-0.046127	0.092394	9.771609	-0.000928	-0.001316	-0.003868
17518	13567836	-0.051993	0.087363	9.814305	-0.003614	-0.000708	0.001724
17519	13567861	-0.020577	0.078581	9.823253	-0.006643	0.001493	-0.000764
17520	13567886	-0.033514	0.099703	9.794559	-0.006229	0.000663	-0.001794
17521	13567911	-0.032877	0.087259	9.805573	-0.005180	-0.004426	-0.002079
17522	13567936	-0.030106	0.087295	9.803642	-0.005446	0.000228	0.000508
17523	13567961	-0.020977	0.087956	9.795936	-0.009818	0.000530	-0.003642
17524	13567986	-0.022805	0.073966	9.816080	-0.001849	-0.000496	-0.003479
17525	13568011	-0.021882	0.070955	9.823741	-0.008653	-0.000232	-0.007114
17526	13568036	-0.033651	0.072229	9.796471	-0.002913	-0.001089	-0.003353
17527	13568061	-0.034682	0.080173	9.799846	-0.005871	-0.002503	-0.001293
17528	13568086	-0.024478	0.062629	9.811300	-0.000881	-0.006604	0.002064
17529	13568111	-0.048936	0.101432	9.825791	-0.006671	-0.001413	0.000440
17530	13568136	-0.026699	0.089454	9.792608	-0.001983	0.000095	0.000951
17531	13568161	-0.066718	0.120149	9.800465	-0.003468	0.002518	-0.002813
17532	13568186	-0.027678	0.089854	9.793104	-0.009245	0.001401	0.003862
17533	13568211	-0.042964	0.092363	9.800835	-0.007790	-0.000723	-0.002180
17534	13568236	-0.044262	0.107079	9.828171	-0.011668	-0.000980	0.002259
17535	13568261	-0.030061	0.079019	9.819942	-0.003113	-0.000642	-0.002068
17536	13568286	-0.018580	0.086636	9.796877	-0.003375	-0.000715	-0.005211
17537	13568311	-0.043989	0.095677	9.802760	-0.007306	0.000523	0.001994
17538	13568336	-0.028142	0.081486	9.811796	-0.007007	0.000840	-0.001214
17539	13568361	-0.049147	0.091933	9.799434	-0.003469	0.001113	0.003785
17540	13568386	-0.039698	0.095583	9.810884	-0.006764	-0.002900	-0.001746
17541	13568411	-0.028061	0.072035	9.807958	-0.007170	0.004596	0.002463
17542	13568436	-0.053236	0.095229	9.827257	-0.004625	0.004689	-0.003570
17543	13568461	-0.031213	0.057083	9.824748	-0.007775	-0.001048	-0.000642
17544	13568486	-0.028688	0.083311	9.816583	-0.006725	0.000274	0.001988
17545	13568511	-0.031731	0.084023	9.769142	-0.003229	-0.001088	0.000051
17546	13568536	-0.052938	0.114612	9.832026	-0.003451	-0.002068	-0.001490
17547	13568561	-0.025839	0.060885	9.795000	-0.007850	-0.002922	-0.002384
17548	13568586	-0.035149	0.065778	9.806563	-0.010759	0.006332	-0.001943
17549	13568611	-0.004571	0.033622	9.801138	-0.003205	-0.002462	-0.005214
17550	13568636	-0.011023	0.090446	9.798755	-0.006267	-0.001852	0.002682
17551	13568661	-0.035671	0.079199	9.804626	-0.003302	-0.001101	-0.004183
17552	13568686	-0.032371	0.082492	9.805586	-0.004873	-0.001709	-0.001295
17553	13568711	-0.041346	0.079718	9.792687	-0.005248	-0.000097	-0.002375
17554	13568736	-0.027409	0.069984	9.788777	-0.006732	0.000592	0.001025
17555	13568761	-0.032758	0.079735	9.802706	-0.003304	-0.003235	-0.004193
17556	13568786	-0.017964	0.062491	9.827084	-0.000435	-0.004408	-0.001323
17557	13568811	-0.018235	0.090100	9.813644	-0.006722	-0.002126	-0.002126
17558	13568836	-0.012981	0.088366	9.808363	-0.009382	0.001185	-0.001274
17559	13568861	-0.019405	0.067964	9.806002	-0.002551	0.001830	-0.000325
17560	13568886	-0.023738	0.077515	9.798839	-0.004654	0.001860	0.000840
17561	13568911	-0.013184	0.064548	9.817469	-0.003321	-0.000262	-0.001290
17562	13568936	-0.013924	0.080438	9.829452	-0.009146	-0.002429	-0.003086
17563	13568961	-0.024817	0.082940	9.813203	-0.006050	-0.003283	-0.004829
17564	13568986	-0.028774	0.084148	9.824265	-0.004694	0.002758	-0.001274
17565	13569011	-0.031296	0.070748	9.803176	-0.002787	-0.000821	0.000562
17566	13569036	-0.031981	0.090735	9.796478	-0.004445	0.001082	0.000004
17567	13569061	-0.032085	0.095813	9.802707	-0.004689	0.000694	-0.001279
17568	13569086	-0.031863	0.084526	9.799333	-0.003873	-0.003241	-0.003614
17569	13569111	-0.026805	0.094023	9.803152	-0.002825	0.000271	-0.001229
17570	13569136	-0.043413	0.086729	9.801316	-0.002499	0.000077	-0.002961
17571	13569161	-0.006195	0.080774	9.815027	-0.006655	-0.002390	-0.003284
17572	13569186	-0.027683	0.086798	9.809381	-0.003335	-0.002137	-0.005214
17573	13569211	-0.047411	0.096802	9.818585	-0.005634	-0.002177	-0.004183
17574	13569236	-0.049078	0.113427	9.816684	-0.006601	0.002667	0.000337
17575	13569261	-0.011862	0.067349	9.824181	-0.000189	-0.000006	-0.002775
17576	13569286	-0.026937	0.076800	9.782553	-0.003411	0.000514	-0.002891
17577	13569311	-0.015467	0.068284	9.789676	-0.003371	-0.000510	0.000501
17578	13569336	-0.018706	0.053812	9.803611	-0.000951	0.003731	-0.000763
