// General information: 
//  MT Manager version: 2022.0.0 
//  XDA version: 2022.0.0 build 7085 rev 119802 built on 2022-11-08
// Device information: 
//  DeviceId: 037004D1
//  ProductCode: MTi-300-2A5G4
//  Firmware Version: 1.4.1
//  Hardware Version: 2.1.0
// Device settings: 
//  Filter Profile: general(39.16)
//  Option Flags: Orientation Smoother Disabled, Position/Velocity Smoother Disabled, Continuous Zero Rotation Update Disabled, AHS Disabled, ICC Disabled
// Coordinate system: ENU
PacketCounter	SampleTimeFine	Acc_X	Acc_Y	Acc_Z	Gyr_X	Gyr_Y	Gyr_Z
17122	11919536	-0.133779	9.865600	-0.040112	0.000669	-0.002757	-0.000827
17123	11919561	-0.150637	9.890320	-0.057218	-0.007270	-0.002898	-0.000165
17124	11919586	-0.123333	9.876948	-0.060698	-0.004542	0.004062	-0.001679
17125	11919611	-0.162963	9.876257	-0.047586	-0.007132	0.002913	-0.003535
17126	11919636	-0.152899	9.879387	-0.058214	-0.002626	-0.006177	-0.001222
17127	11919661	-0.167933	9.868892	-0.065694	-0.009526	-0.000155	0.000374
17128	11919686	-0.171305	9.869279	-0.063343	-0.006668	-0.003533	0.001176
17129	11919711	-0.150658	9.855783	-0.063381	-0.009033	-0.001960	-0.002721
17130	11919736	-0.162245	9.863098	-0.054232	-0.010739	0.001498	-0.001027
17131	11919761	-0.173491	9.849787	-0.062851	-0.008093	0.000700	-0.003859
17132	11919786	-0.158582	9.871289	-0.060567	-0.003493	-0.001489	-0.007156
17133	11919811	-0.137209	9.843885	-0.051078	-0.003785	0.000657	0.001256
17134	11919836	-0.169636	9.878933	-0.042787	-0.002049	-0.001642	0.000924
17135	11919861	-0.159654	9.889666	-0.053785	-0.007555	-0.001730	0.002536
17136	11919886	-0.143315	9.865522	-0.042885	-0.004151	0.001940	-0.002010
17137	11919911	-0.132674	9.871890	-0.078833	-0.008669	-0.000983	-0.000471
17138	11919936	-0.165064	9.895794	-0.054738	-0.007737	-0.004655	-0.005558
17139	11919961	-0.147673	9.873116	-0.046717	-0.005561	-0.002350	-0.001775
17140	11919986	-0.147188	9.875347	-0.037548	-0.007577	-0.000887	0.003371
17141	11920011	-0.147884	9.858894	-0.048120	-0.005788	0.001146	0.001004
17142	11920036	-0.116482	9.860182	-0.044959	-0.002933	-0.000031	0.002083
17143	11920061	-0.120424	9.877956	-0.062687	-0.002846	-0.000548	0.002463
17144	11920086	-0.125920	9.860261	-0.057810	-0.004339	-0.004192	0.002961
17145	11920111	-0.114688	9.876163	-0.064617	-0.005779	-0.003387	0.000146
17146	11920136	-0.119396	9.854121	-0.023286	-0.008802	0.001481	0.003770
17147	11920161	-0.090698	9.862752	-0.067119	-0.006565	-0.003140	-0.002547
17148	11920186	-0.107491	9.857887	-0.042163	-0.000297	-0.000642	-0.000945
17149	11920211	-0.118611	9.883626	-0.059283	-0.005265	-0.003502	0.001298
17150	11920236	-0.123882	9.871519	-0.047283	-0.007010	-0.005358	-0.004543
17151	11920261	-0.115890	9.849305	-0.046368	-0.008130	-0.002131	-0.001702
17152	11920286	-0.121801	9.863032	-0.049675	-0.008135	-0.003883	-0.001390
17153	11920311	-0.153705	9.869581	-0.069126	-0.008328	-0.001954	-0.003944
17154	11920336	-0.151455	9.875019	-0.050007	-0.006361	0.001065	-0.001177
17155	11920361	-0.130849	9.865278	-0.047792	-0.003834	0.000010	-0.000674
17156	11920386	-0.128409	9.867632	-0.076012	-0.004914	0.001208	-0.005664
17157	11920411	-0.159928	9.874137	-0.061478	-0.005250	0.000116	-0.000857
17158	11920436	-0.154008	9.873758	-0.031341	-0.003862	0.002587	-0.004183
17159	11920461	-0.175910	9.888535	-0.053718	-0.005482	0.001137	-0.004309
17160	11920486	-0.142645	9.861077	-0.062031	-0.007068	0.005120	-0.001919
17161	11920511	-0.146771	9.860929	-0.086881	-0.010833	0.000399	-0.003661
17162	11920536	-0.133757	9.871118	-0.060727	-0.001335	-0.004347	-0.002819
17163	11920561	-0.144640	9.866249	-0.060599	-0.006571	0.001313	-0.003548
17164	11920586	-0.145488	9.860021	-0.058218	-0.004058	0.003044	0.000496
17165	11920611	-0.159513	9.873899	-0.046074	-0.010373	-0.001781	0.001009
17166	11920636	-0.146060	9.865721	-0.058659	-0.007610	-0.001998	0.000289
17167	11920661	-0.148091	9.864998	-0.043278	-0.009412	-0.004232	-0.004721
17168	11920686	-0.143486	9.882140	-0.043876	-0.006674	-0.001399	-0.001186
17169	11920711	-0.111978	9.851148	-0.069866	-0.006446	0.003777	-0.001165
17170	11920736	-0.133148	9.862131	-0.061096	-0.008574	-0.006540	-0.002493
17171	11920761	-0.127413	9.861797	-0.065455	-0.008515	-0.004277	-0.003442
17172	11920786	-0.149512	9.873652	-0.052438	-0.004190	-0.001094	-0.001441
17173	11920811	-0.141879	9.875697	-0.056335	-0.002795	-0.000358	0.001629
17174	11920836	-0.131145	9.856883	-0.058255	-0.007394	0.001569	0.003515
17175	11920861	-0.142131	9.902196	-0.082127	-0.009449	-0.001138	-0.007848
17176	11920886	-0.127983	9.865528	-0.061605	-0.010964	0.000261	-0.005080
17177	11920911	-0.141912	9.870932	-0.054443	-0.002921	0.000787	-0.007464
17178	11920936	-0.127603	9.877880	-0.062575	-0.007409	-0.000507	-0.001247
17179	11920961	-0.134352	9.872128	-0.034238	-0.009142	-0.000145	0.001322
17180	11920986	-0.140165	9.875452	-0.038077	-0.009584	-0.000878	-0.005022
17181	11921011	-0.138479	9.869236	-0.064939	-0.005768	-0.003973	-0.002868
17182	11921036	-0.125883	9.887383	-0.062590	-0.006960	-0.005163	-0.007361
17183	11921061	-0.114507	9.863007	-0.072790	-0.002359	-0.002357	-0.000951
17184	11921086	-0.124564	9.861654	-0.054045	0.000347	-0.002885	-0.000575
17185	11921111	-0.126445	9.887952	-0.038680	-0.005175	-0.001954	0.000985
17186	11921136	-0.125653	9.869104	-0.045914	0.001015	-0.001584	0.000456
17187	11921161	-0.127392	9.858781	-0.055445	-0.003815	-0.000569	0.001499
17188	11921186	-0.165487	9.895247	-0.050061	0.003177	-0.005032	0.000952
17189	11921211	-0.144904	9.882836	-0.059648	-0.003330	0.001749	-0.005539
17190	11921236	-0.133792	9.866089	-0.041468	-0.007731	0.001551	-0.003026
17191	11921261	-0.143758	9.871902	-0.057245	-0.007199	-0.000893	-0.000605
17192	11921286	-0.142791	9.864658	-0.048674	-0.002933	0.003639	-0.001810
17193	11921311	-0.161472	9.879267	-0.057165	-0.004928	0.002189	-0.001104
17194	11921336	-0.159507	9.882261	-0.064873	-0.006273	-0.001773	0.000547
17195	11921361	-0.160658	9.854704	-0.063442	-0.002407	-0.002746	-0.000951
17196	11921386	-0.160306	9.864574	-0.057182	-0.002974	-0.000939	0.000022
17197	11921411	-0.158026	9.863503	-0.047585	-0.006445	0.001509	-0.001301
17198	11921436	-0.158358	9.898750	-0.056737	-0.004785	-0.002658	-0.002670
17199	11921461	-0.131182	9.856874	-0.057382	-0.001895	-0.000672	-0.000170
17200	11921486	-0.146912	9.867819	-0.072523	-0.007908	0.001559	0.001723
17201	11921511	-0.149931	9.883944	-0.074482	-0.007220	-0.002176	0.002147
17202	11921536	-0.116132	9.848499	-0.087152	-0.001094	0.002322	0.000548
17203	11921561	-0.119524	9.841591	-0.072245	-0.004238	0.002387	-0.003353
17204	11921586	-0.138502	9.868762	-0.064975	-0.003809	-0.005555	-0.006670
17205	11921611	-0.157624	9.913032	-0.058704	-0.000241	-0.002520	-0.003320
17206	11921636	-0.136673	9.880681	-0.067386	-0.004418	-0.002138	-0.002155
17207	11921661	-0.130318	9.852356	-0.040577	-0.003690	-0.000767	-0.002095
17208	11921686	-0.112306	9.863542	-0.043504	-0.005624	-0.000350	-0.003818
17209	11921711	-0.132091	9.845738	-0.043397	-0.006308	-0.003141	-0.003186
17210	11921736	-0.121700	9.853000	-0.044405	-0.004382	-0.000910	-0.000225
17211	11921761	-0.132034	9.875858	-0.027580	-0.006996	0.001186	0.001526
17212	11921786	-0.120281	9.860903	-0.063579	-0.008240	-0.002594	-0.002603
17213	11921811	-0.119528	9.882654	-0.058785	-0.008079	0.001040	0.002295
17214	11921836	-0.151334	9.903974	-0.051043	-0.001021	-0.001940	-0.000373
17215	11921861	-0.115568	9.868897	-0.055548	-0.000095	-0.002830	0.002891
17216	11921886	-0.132422	9.873878	-0.052941	-0.010385	0.000207	-0.005980
17217	11921911	-0.126272	9.869164	-0.019912	-0.007245	-0.005470	0.002193
17218	11921936	-0.144513	9.843445	-0.028064	-0.004488	-0.001487	0.000413
17219	11921961	-0.130535	9.878566	-0.048670	-0.006841	-0.002047	0.000478
17220	11921986	-0.134211	9.870113	-0.057277	-0.008543	-0.003050	-0.000420
17221	11922011	-0.140437	9.857724	-0.027603	-0.002658	0.001055	-0.003749
17222	11922036	-0.129062	9.865594	-0.036745	-0.002833	-0.007536	-0.001425
17223	11922061	-0.147130	9.860544	-0.031318	-0.008778	-0.006157	-0.003195
17224	11922086	-0.155471	9.853647	-0.051924	-0.004485	-0.001876	-0.002092
17225	11922111	-0.141520	9.847408	-0.067318	-0.006939	-0.003414	-0.003637
17226	11922136	-0.161739	9.869482	-0.069086	-0.009765	0.001460	0.000383
17227	11922161	-0.130516	9.848623	-0.075593	-0.002590	0.000866	-0.002402
17228	11922186	-0.144276	9.852287	-0.078818	-0.004458	-0.002453	0.003289
17229	11922211	-0.164775	9.881804	-0.070597	-0.002824	-0.001851	-0.003058
17230	11922236	-0.152010	9.887010	-0.059627	-0.001553	0.002894	0.001907
17231	11922261	-0.149798	9.871828	-0.088854	-0.005497	-0.000478	-0.003360
17232	11922286	-0.161959	9.872411	-0.043287	-0.001766	-0.005129	-0.003655
17233	11922311	-0.127560	9.876509	-0.065998	-0.004929	0.000250	-0.000739
17234	11922336	-0.136765	9.849155	-0.054000	-0.000319	0.000340	0.002079
17235	11922361	-0.141651	9.860271	-0.070716	-0.001448	0.003414	-0.001493
17236	11922386	-0.117903	9.865768	-0.069367	-0.005586	0.000621	-0.001886
17237	11922411	-0.155562	9.870976	-0.068742	-0.002737	0.003909	-0.000523
17238	11922436	-0.147540	9.872542	-0.071629	-0.004548	0.001924	-0.006306
17239	11922461	-0.154200	9.867571	-0.061568	-0.000648	-0.000072	-0.005427
17240	11922486	-0.144624	9.885095	-0.021370	-0.001569	-0.002989	-0.002618
17241	11922511	-0.137585	9.873885	-0.057805	-0.000665	-0.003035	-0.000188
17242	11922536	-0.103482	9.856899	-0.068002	-0.004426	0.002587	0.000110
17243	11922561	-0.126506	9.856689	-0.041548	-0.002749	0.000030	0.000215
17244	11922586	-0.134544	9.856780	-0.053923	-0.005803	-0.002937	-0.001836
17245	11922611	-0.136390	9.880627	-0.032431	-0.002351	-0.002745	-0.002035
17246	11922636	-0.147653	9.866272	-0.033722	-0.007619	0.002071	-0.002447
17247	11922661	-0.136965	9.907301	-0.071242	-0.004984	0.002120	0.000240
17248	11922686	-0.132537	9.875546	-0.038181	0.000434	-0.001858	-0.005570
17249	11922711	-0.123471	9.851289	-0.058833	-0.003237	-0.000565	0.000732
17250	11922736	-0.166229	9.868932	-0.036488	-0.008062	0.000191	-0.000857
17251	11922761	-0.143835	9.887897	-0.079343	-0.004655	-0.002855	-0.002992
17252	11922786	-0.135691	9.872055	-0.060659	-0.005813	-0.000484	-0.004137
17253	11922811	-0.133480	9.877348	-0.033325	-0.008251	0.002067	-0.001036
17254	11922836	-0.141719	9.861064	-0.061077	-0.007418	-0.004582	-0.004214
17255	11922861	-0.150333	9.887987	-0.028970	-0.002734	-0.004365	0.001034
17256	11922886	-0.146363	9.880614	-0.040466	-0.006036	0.000744	-0.000411
17257	11922911	-0.138375	9.893471	-0.036712	-0.003576	0.002220	0.001583
17258	11922936	-0.134242	9.869724	-0.062080	-0.007388	-0.001617	-0.005800
17259	11922961	-0.144671	9.874840	-0.063938	-0.005956	-0.003964	-0.000173
17260	11922986	-0.144076	9.898914	-0.056324	-0.005375	-0.001825	0.001243
17261	11923011	-0.114099	9.868723	-0.074197	-0.003551	-0.000894	-0.000875
17262	11923036	-0.116406	9.855167	-0.057907	-0.001419	0.000177	-0.003563
17263	11923061	-0.181701	9.885888	-0.041742	-0.004062	0.000839	-0.002971
17264	11923086	-0.144233	9.902864	-0.035244	-0.001982	0.002441	0.000876
17265	11923111	-0.122756	9.867298	-0.050246	-0.002679	-0.001967	0.001432
17266	11923136	-0.151226	9.861411	-0.060084	-0.007698	0.002849	-0.001611
17267	11923161	-0.113091	9.857071	-0.055992	-0.004159	0.002201	-0.001815
17268	11923186	-0.120482	9.832098	-0.041965	-0.007088	-0.004828	-0.001335
17269	11923211	-0.170469	9.897254	-0.030366	0.001043	0.003713	-0.002396
17270	11923236	-0.125529	9.863032	-0.052537	-0.006732	0.000481	0.002091
17271	11923261	-0.157927	9.861721	-0.054302	-0.006923	0.000407	-0.001882
17272	11923286	-0.149931	9.865429	-0.042849	-0.005874	0.002044	0.002104
17273	11923311	-0.167151	9.871624	-0.058159	-0.002858	0.005378	-0.004944
17274	11923336	-0.153187	9.862095	-0.044315	-0.003025	0.005265	0.001533
17275	11923361	-0.149738	9.884908	-0.044226	-0.009455	0.001326	-0.001673
17276	11923386	-0.149737	9.880865	-0.028536	-0.001539	-0.001758	0.000083
17277	11923411	-0.129780	9.864993	-0.060201	-0.004809	-0.001097	0.004712
17278	11923436	-0.148230	9.875298	-0.035194	-0.004712	0.001413	-0.000474
17279	11923461	-0.141953	9.881459	-0.060683	-0.002627	-0.002040	-0.003059
17280	11923486	-0.172948	9.878408	-0.041801	-0.003377	-0.000302	0.001000
17281	11923511	-0.137046	9.868574	-0.052000	-0.005479	-0.002599	0.001815
17282	11923536	-0.155502	9.892996	-0.050442	-0.007792	0.001618	-0.001678
17283	11923561	-0.138290	9.886076	-0.049588	-0.008336	0.000443	-0.000533
17284	11923586	-0.148198	9.878649	-0.037563	-0.006755	-0.000551	0.002541
17285	11923611	-0.141150	9.890403	-0.054864	-0.007577	0.001104	-0.000274
17286	11923636	-0.121500	9.851429	-0.066465	-0.006583	0.004296	0.003782
17287	11923661	-0.129744	9.849860	-0.032895	-0.004597	-0.001866	0.004511
17288	11923686	-0.146886	9.858892	-0.047582	-0.008896	-0.003293	0.007917
17289	11923711	-0.141380	9.870122	-0.063098	-0.001632	-0.003392	-0.004478
17290	11923736	-0.146030	9.888129	-0.034729	-0.004447	0.000897	-0.003552
17291	11923761	-0.149130	9.880357	-0.055844	-0.002971	0.005123	-0.003146
17292	11923786	-0.118269	9.842987	-0.038627	-0.008319	-0.003883	0.000919
17293	11923811	-0.161075	9.878734	-0.052384	-0.003174	-0.003353	-0.006974
17294	11923836	-0.141866	9.873831	-0.058251	-0.005066	-0.001629	-0.001962
17295	11923861	-0.144779	9.874012	-0.041941	-0.005183	0.000636	0.003892
17296	11923886	-0.116091	9.859191	-0.041075	-0.005704	-0.001836	-0.002603
17297	11923911	-0.129440	9.869240	-0.057850	-0.001757	-0.003387	-0.003454
17298	11923936	-0.139303	9.861636	-0.065487	-0.001918	-0.004099	-0.001468
17299	11923961	-0.157728	9.885102	-0.063382	-0.008039	0.001092	-0.003472
17300	11923986	-0.130870	9.867829	-0.059702	-0.006892	-0.003023	-0.004658
17301	11924011	-0.128477	9.871120	-0.055868	-0.007367	-0.005929	0.000073
17302	11924036	-0.137105	9.863745	-0.045829	-0.001681	-0.003645	-0.003459
17303	11924061	-0.145136	9.873511	-0.070637	-0.007287	0.001824	-0.001420
17304	11924086	-0.132706	9.874312	-0.082287	-0.002965	-0.003797	-0.006083
17305	11924111	-0.137949	9.874773	-0.085056	-0.006303	0.002998	-0.003150
17306	11924136	-0.149620	9.879420	-0.057273	-0.002904	-0.001664	-0.005299
17307	11924161	-0.137014	9.877485	-0.076045	0.000252	0.002605	0.001895
17308	11924186	-0.131141	9.855008	-0.059342	-0.000191	-0.006001	-0.000392
17309	11924211	-0.166444	9.902060	-0.062009	0.000130	-0.001727	0.001046
17310	11924236	-0.141887	9.868484	-0.049661	-0.000542	0.000903	-0.003305
17311	11924261	-0.128550	9.869252	-0.057906	0.000273	-0.000641	-0.004855
17312	11924286	-0.146727	9.886712	-0.066440	0.003339	-0.002319	-0.000897
17313	11924311	-0.138732	9.849638	-0.056330	-0.003694	-0.002645	-0.001779
17314	11924336	-0.172853	9.872343	-0.047940	-0.009440	0.001010	0.000246
17315	11924361	-0.138995	9.883250	-0.082257	-0.004466	-0.000323	0.000350
17316	11924386	-0.121935	9.875263	-0.042485	-0.007267	-0.002950	0.001624
17317	11924411	-0.137437	9.888607	-0.028555	-0.003454	0.000215	0.002147
17318	11924436	-0.150058	9.871072	-0.038996	-0.006156	-0.001647	-0.001830
17319	11924461	-0.142206	9.884887	-0.036129	-0.009067	0.000939	-0.007068
17320	11924486	-0.136472	9.896811	-0.036694	-0.007203	0.001770	0.005949
17321	11924511	-0.128969	9.866980	-0.064549	-0.002024	-0.001140	-0.007097
17322	11924536	-0.129896	9.872211	-0.065467	-0.007100	-0.000052	-0.002144
17323	11924561	-0.150891	9.883012	-0.075858	-0.009243	0.003283	0.000641
17324	11924586	-0.133364	9.898120	-0.088512	-0.001007	-0.000131	0.002210
17325	11924611	-0.136788	9.880321	-0.043871	-0.004439	-0.003557	-0.002934
17326	11924636	-0.128088	9.872848	-0.044896	-0.004287	0.002396	0.002035
17327	11924661	-0.126175	9.862720	-0.032863	-0.007287	-0.006257	0.000583
17328	11924686	-0.130463	9.856996	-0.033800	-0.007315	0.000063	-0.007527
17329	11924711	-0.108479	9.866630	-0.056508	-0.004911	-0.002728	-0.003316
17330	11924736	-0.117528	9.873496	-0.078498	-0.002486	0.001250	-0.006503
17331	11924761	-0.138543	9.885162	-0.082688	-0.004628	-0.001301	-0.002539
17332	11924786	-0.121231	9.861787	-0.060633	-0.011283	0.002846	-0.000314
17333	11924811	-0.124468	9.889634	-0.053541	-0.006561	-0.000878	-0.000542
17334	11924836	-0.121433	9.875554	-0.060719	-0.006734	-0.001793	-0.003885
17335	11924861	-0.128469	9.863396	-0.047262	-0.007913	-0.000836	-0.000860
17336	11924886	-0.136850	9.866611	-0.078790	-0.011365	-0.002575	0.002544
17337	11924911	-0.131156	9.858322	-0.058803	-0.002968	-0.005072	0.002122
17338	11924936	-0.153585	9.864296	-0.064862	-0.008720	0.000705	0.001393
17339	11924961	-0.161390	9.877022	-0.065314	-0.004832	-0.000913	-0.001638
17340	11924986	-0.138111	9.871316	-0.046256	-0.004731	0.002256	0.001654
17341	11925011	-0.145413	9.887912	-0.050536	-0.007029	-0.004441	-0.001007
17342	11925036	-0.148514	9.870376	-0.054830	-0.006060	-0.000484	0.000352
17343	11925061	-0.148122	9.867369	-0.043837	-0.005397	-0.001511	-0.004523
17344	11925086	-0.172875	9.890402	-0.081194	0.000042	-0.001149	-0.000361
17345	11925111	-0.159190	9.888373	-0.061012	-0.003371	0.001439	-0.002076
17346	11925136	-0.114516	9.844981	-0.041601	-0.004734	-0.000404	-0.004265
17347	11925161	-0.132255	9.861964	-0.049663	-0.002615	-0.002363	-0.000887
17348	11925186	-0.135159	9.866201	-0.049664	-0.003524	-0.001860	-0.000939
17349	11925211	-0.137783	9.892422	-0.060176	-0.003622	-0.000760	-0.001708
17350	11925236	-0.139356	9.887341	-0.039628	-0.000784	-0.003956	-0.006981
17351	11925261	-0.157368	9.895468	-0.058171	-0.003263	0.000215	-0.000484
17352	11925286	-0.129659	9.872543	-0.026167	-0.007945	-0.001550	-0.000539
17353	11925311	-0.143946	9.852039	-0.062090	-0.002396	-0.001130	-0.001967
17354	11925336	-0.138230	9.861663	-0.066904	-0.004907	-0.002126	0.005539
17355	11925361	-0.153451	9.889354	-0.059135	-0.005455	-0.003313	0.001499
17356	11925386	-0.145671	9.880151	-0.071613	-0.005631	0.000237	-0.000603
17357	11925411	-0.127462	9.867112	-0.072230	-0.003572	-0.000446	-0.004466
17358	11925436	-0.139781	9.857479	-0.042359	-0.008529	-0.001037	0.003058
17359	11925461	-0.136882	9.846475	-0.033465	0.005651	0.001998	0.002904
17360	11925486	-0.172694	9.876682	-0.083959	-0.004986	-0.004084	0.000207
17361	11925511	-0.138376	9.872688	-0.073618	-0.002335	-0.004999	0.002310
17362	11925536	-0.144008	9.887475	-0.051999	-0.005026	-0.002860	-0.001328
17363	11925561	-0.115222	9.876102	-0.060735	-0.007507	-0.003679	-0.002865
17364	11925586	-0.160710	9.897928	-0.066817	-0.001660	-0.000218	-0.002794
17365	11925611	-0.120920	9.876497	-0.060244	-0.006711	0.000022	0.000489
17366	11925636	-0.148577	9.868855	-0.048089	-0.007029	0.001301	-0.005591
17367	11925661	-0.126832	9.861300	-0.064477	-0.010289	0.000164	0.005119
17368	11925686	-0.132040	9.863474	-0.086112	-0.004536	-0.000395	-0.001825
17369	11925711	-0.109189	9.856338	-0.067491	-0.003570	-0.002052	0.002712
17370	11925736	-0.142968	9.882818	-0.056835	-0.003296	0.000915	-0.003621
17371	11925761	-0.138510	9.878297	-0.068804	-0.004973	-0.000526	0.000927
17372	11925786	-0.138200	9.847556	-0.073528	-0.009367	-0.006175	-0.008452
17373	11925811	-0.133412	9.885395	-0.062598	-0.005893	-0.006104	-0.002815
17374	11925836	-0.136397	9.886943	-0.042013	-0.000501	-0.004585	-0.002310
17375	11925861	-0.128555	9.880294	-0.066890	-0.007851	-0.002585	-0.000229
17376	11925886	-0.126349	9.883221	-0.038629	-0.008468	0.000969	0.001016
17377	11925911	-0.139440	9.855037	-0.036711	-0.001739	0.004368	-0.003673
17378	11925936	-0.137575	9.871830	-0.047695	-0.006293	-0.001322	0.000414
17379	11925961	-0.116621	9.872721	-0.058386	-0.004232	0.002325	-0.002843
17380	11925986	-0.150539	9.877012	-0.055791	-0.003825	-0.000513	-0.003691
17381	11926011	-0.163795	9.874386	-0.050418	-0.005400	0.001022	0.001390
17382	11926036	-0.145300	9.875546	-0.048638	-0.003572	-0.002509	-0.003447
17383	11926061	-0.153591	9.860982	-0.064862	-0.006293	0.000802	-0.001048
17384	11926086	-0.176106	9.901778	-0.051795	-0.006342	0.002156	-0.005461
17385	11926111	-0.131989	9.868787	-0.029999	-0.005296	-0.002669	-0.002672
17386	11926136	-0.155131	9.870299	-0.055730	-0.007758	0.000852	0.002231
17387	11926161	-0.159114	9.874849	-0.045231	-0.002474	-0.005010	-0.003587
17388	11926186	-0.142434	9.875547	-0.046685	-0.006181	0.001326	-0.001560
17389	11926211	-0.130764	9.861620	-0.056855	-0.006583	-0.002366	-0.001323
17390	11926236	-0.154294	9.872113	-0.049096	-0.002903	-0.001334	-0.003183
17391	11926261	-0.167418	9.877775	-0.026422	-0.007313	0.002460	-0.003663
17392	11926286	-0.137199	9.872257	-0.044313	-0.007869	-0.000064	-0.002208
17393	11926311	-0.128636	9.878235	-0.055907	-0.003213	0.000207	-0.004005
17394	11926336	-0.160420	9.878818	-0.058134	-0.006007	0.002374	0.004798
17395	11926361	-0.126235	9.880135	-0.054447	-0.007538	-0.001989	0.003234
17396	11926386	-0.161889	9.906130	-0.045213	-0.001101	0.000639	-0.002274
17397	11926411	-0.145066	9.885762	-0.034295	-0.003718	0.002268	-0.003162
17398	11926436	-0.152850	9.875144	-0.059107	-0.007367	0.000399	-0.000721
17399	11926461	-0.145156	9.872932	-0.063930	-0.005895	0.000361	-0.001246
17400	11926486	-0.121471	9.879339	-0.060293	-0.001547	-0.001569	-0.001074
17401	11926511	-0.116498	9.860695	-0.047830	-0.003771	0.002018	0.001639
17402	11926536	-0.117869	9.858058	-0.062179	-0.004356	-0.002268	-0.005116
17403	11926561	-0.138944	9.864176	-0.044844	-0.004458	-0.000645	-0.000933
17404	11926586	-0.116862	9.888758	-0.052083	-0.006917	-0.003666	0.000466
17405	11926611	-0.108112	9.850319	-0.075681	-0.004981	-0.004664	-0.002173
17406	11926636	-0.124605	9.859257	-0.052552	-0.005367	-0.000282	-0.002728
17407	11926661	-0.134480	9.860748	-0.065002	-0.001581	0.001858	0.001197
17408	11926686	-0.122598	9.862937	-0.075097	-0.006175	-0.005075	-0.000568
17409	11926711	-0.139853	9.874076	-0.072642	-0.003166	0.007583	0.001290
17410	11926736	-0.119539	9.872831	-0.037260	-0.004335	0.002010	0.004019
17411	11926761	-0.140642	9.892869	-0.061149	-0.002821	-0.003785	0.000329
17412	11926786	-0.171982	9.877603	-0.049517	-0.000030	-0.005159	-0.001863
17413	11926811	-0.157370	9.885387	-0.050007	-0.003427	0.000785	-0.004897
17414	11926836	-0.130944	9.864056	-0.030491	-0.003737	0.001049	-0.000922
17415	11926861	-0.125409	9.889603	-0.052099	-0.004627	-0.001293	0.000216
17416	11926886	-0.136055	9.858483	-0.042454	-0.003429	-0.005023	-0.001983
17417	11926911	-0.143197	9.891951	-0.034288	-0.002982	-0.000691	-0.001065
17418	11926936	-0.157117	9.880473	-0.070619	-0.005330	0.000562	-0.001180
17419	11926961	-0.172050	9.892924	-0.059034	-0.007649	-0.000633	0.001645
17420	11926986	-0.140343	9.862810	-0.050120	-0.002860	-0.006691	0.000377
17421	11927011	-0.131837	9.864836	-0.051108	-0.004746	0.002117	-0.004253
17422	11927036	-0.161679	9.892556	-0.057249	0.000153	0.003104	-0.006117
17423	11927061	-0.121413	9.871668	-0.054976	-0.003441	-0.004512	-0.001600
17424	11927086	-0.152967	9.893810	-0.070681	-0.002594	0.001456	0.000553
17425	11927111	-0.131200	9.857355	-0.057837	-0.001828	0.001141	-0.002858
17426	11927136	-0.153760	9.878561	-0.067228	-0.007977	-0.000317	0.002742
17427	11927161	-0.154030	9.855135	-0.055295	-0.006761	-0.000688	-0.001696
17428	11927186	-0.139705	9.856852	-0.062549	-0.005554	-0.000404	0.000097
17429	11927211	-0.140438	9.870977	-0.056305	-0.005661	-0.001258	-0.001572
17430	11927236	-0.133873	9.881014	-0.055898	-0.003335	-0.001793	-0.001007
17431	11927261	-0.120185	9.853381	-0.067907	-0.004797	-0.004737	-0.006917
17432	11927286	-0.131247	9.863154	-0.064991	-0.004183	-0.001551	-0.003500
17433	11927311	-0.116389	9.855665	-0.059322	-0.005217	0.003281	-0.001170
17434	11927336	-0.114549	9.865674	-0.061617	-0.010477	-0.000101	0.003576
17435	11927361	-0.143527	9.859189	-0.064446	-0.006285	0.002618	0.002421
17436	11927386	-0.123021	9.846491	-0.053975	-0.008352	0.000830	-0.003286
17437	11927411	-0.147189	9.881920	-0.063958	-0.006624	-0.003210	-0.002928
17438	11927436	-0.152640	9.899926	-0.066828	-0.004539	-0.004402	-0.003517
17439	11927461	-0.126169	9.877461	-0.065531	-0.002858	0.001445	-0.000158
17440	11927486	-0.142464	9.879587	-0.062476	-0.009207	-0.000744	-0.006624
17441	11927511	-0.123082	9.883295	-0.040582	-0.005826	-0.006364	-0.004742
17442	11927536	-0.158130	9.873520	-0.050960	-0.004934	0.000310	-0.003107
17443	11927561	-0.124368	9.847111	-0.064969	-0.006798	0.002408	-0.003028
17444	11927586	-0.169415	9.873146	-0.067232	-0.004382	-0.002910	-0.000493
17445	11927611	-0.162499	9.886410	-0.059565	-0.005527	0.002950	-0.000457
17446	11927636	-0.150341	9.899209	-0.049056	-0.005502	0.000045	-0.002404
17447	11927661	-0.130352	9.870781	-0.066343	-0.011748	0.001290	-0.000836
17448	11927686	-0.146311	9.880309	-0.051056	-0.004150	-0.000523	-0.004074
17449	11927711	-0.158650	9.865133	-0.029872	-0.003703	-0.000577	-0.004588
17450	11927736	-0.151866	9.875031	-0.051442	-0.007090	-0.002109	0.001952
17451	11927761	-0.147144	9.883094	-0.078868	-0.001250	0.001152	-0.001124
17452	11927786	-0.112023	9.842394	-0.056510	-0.001764	0.003205	-0.003490
17453	11927811	-0.167161	9.878313	-0.060989	-0.006163	-0.003524	-0.002605
17454	11927836	-0.139508	9.837277	-0.055369	-0.004047	0.000656	0.002532
17455	11927861	-0.126964	9.858674	-0.047737	-0.006066	-0.000483	-0.000986
17456	11927886	-0.164789	9.874916	-0.055268	-0.005643	-0.003710	-0.001907
17457	11927911	-0.136620	9.868978	-0.046791	-0.003350	0.000727	-0.002658
17458	11927936	-0.150669	9.855771	-0.063494	-0.001499	-0.003120	-0.001206
17459	11927961	-0.115954	9.866740	-0.069882	-0.004998	-0.001560	0.001504
17460	11927986	-0.133801	9.872264	-0.041964	-0.006182	-0.000608	0.000930
17461	11928011	-0.131319	9.862889	-0.047696	-0.008209	0.000772	-0.000405
17462	11928036	-0.143775	9.869999	-0.057222	-0.009568	-0.001262	-0.002526
17463	11928061	-0.110676	9.879905	-0.026284	-0.004664	0.002262	0.000623
17464	11928086	-0.130084	9.877169	-0.049659	-0.006190	-0.000685	-0.003752
17465	11928111	-0.133876	9.883589	-0.069266	-0.007756	0.002323	-0.005014
17466	11928136	-0.167593	9.880357	-0.071566	-0.001937	-0.001509	-0.002284
17467	11928161	-0.116919	9.862377	-0.064082	-0.005969	-0.003643	-0.001137
17468	11928186	-0.109276	9.871383	-0.088566	-0.006580	0.003771	-0.001611
17469	11928211	-0.124904	9.880913	-0.041987	-0.006451	-0.000165	-0.000353
17470	11928236	-0.114065	9.873624	-0.083772	-0.006382	-0.000618	-0.000925
17471	11928261	-0.152919	9.883338	-0.068644	-0.009011	-0.000802	-0.003736
17472	11928286	-0.149746	9.861501	-0.064857	-0.007865	-0.004198	0.000469
17473	11928311	-0.123062	9.864033	-0.084682	-0.005305	0.003527	-0.003728
17474	11928336	-0.150327	9.886532	-0.026123	-0.001538	0.000110	-0.002342
17475	11928361	-0.118140	9.873408	-0.042035	-0.006917	0.000213	-0.001116
17476	11928386	-0.152395	9.878497	-0.061064	-0.002010	0.002947	-0.002329
17477	11928411	-0.139104	9.847428	-0.066870	-0.004609	0.000064	-0.000668
17478	11928436	-0.159728	9.863985	-0.080131	-0.008966	-0.002088	-0.002140
17479	11928461	-0.148958	9.873875	-0.066797	-0.006633	0.001515	-0.000718
17480	11928486	-0.159814	9.861763	-0.058622	-0.005735	-0.002736	-0.000551
17481	11928511	-0.143835	9.878203	-0.066868	-0.003509	0.001487	-0.006631
17482	11928536	-0.147742	9.882752	-0.056796	-0.002933	-0.000627	-0.003624
17483	11928561	-0.153171	9.875552	-0.086982	-0.002609	-0.000557	-0.002602
17484	11928586	-0.151382	9.873181	-0.053860	-0.004512	-0.001030	0.000095
17485	11928611	-0.144970	9.897496	-0.057332	-0.000760	-0.001930	0.002900
17486	11928636	-0.160082	9.885575	-0.065333	-0.008383	-0.002018	-0.001249
17487	11928661	-0.136681	9.863075	-0.096103	-0.005929	-0.002412	0.003102
17488	11928686	-0.131717	9.879133	-0.086558	-0.005752	-0.002022	0.002332
17489	11928711	-0.142646	9.862924	-0.058741	-0.002876	0.000028	-0.000739
17490	11928736	-0.166675	9.875835	-0.053328	-0.006254	-0.002556	-0.000551
17491	11928761	-0.122521	9.845013	-0.050653	-0.005028	-0.000788	-0.000612
17492	11928786	-0.147614	9.868240	-0.038100	-0.002894	0.002874	-0.000143
17493	11928811	-0.139838	9.860974	-0.053945	-0.004454	-0.002784	-0.000688
17494	11928836	-0.125305	9.872399	-0.043925	-0.004990	0.001791	-0.004512
17495	11928861	-0.138105	9.870909	-0.049608	-0.005803	-0.002876	-0.004147
17496	11928886	-0.128537	9.864825	-0.047680	-0.010997	-0.000708	-0.005277
17497	11928911	-0.133827	9.884996	-0.068320	-0.006409	-0.003590	0.000404
17498	11928936	-0.147028	9.868181	-0.064393	-0.009066	-0.002930	-0.003174
17499	11928961	-0.128427	9.854621	-0.032418	-0.004351	-0.001805	0.000854
17500	11928986	-0.157707	9.879272	-0.054347	-0.004825	-0.001371	-0.003566
17501	11929011	-0.111952	9.883266	-0.061274	-0.003585	-0.001991	-0.001781
17502	11929036	-0.135659	9.876866	-0.065388	-0.008334	-0.003883	-0.002092
17503	11929061	-0.131133	9.884201	-0.044837	-0.005914	-0.001259	-0.003241
17504	11929086	-0.113922	9.853543	-0.074139	-0.008385	0.002055	-0.000717
17505	11929111	-0.133672	9.874556	-0.068320	-0.007941	0.000526	0.003766
17506	11929136	-0.105874	9.860756	-0.073774	-0.004297	-0.001745	0.000341
17507	11929161	-0.117196	9.884357	-0.074169	-0.006181	0.000930	-0.004895
17508	11929186	-0.112752	9.870970	-0.064605	-0.004821	-0.003630	-0.003514
17509	11929211	-0.125641	9.872152	-0.059708	-0.007194	0.003052	-0.000265
17510	11929236	-0.112921	9.873909	-0.039804	0.002380	0.003996	0.000225
17511	11929261	-0.160378	9.870384	-0.064854	-0.003426	-0.001085	-0.002153
17512	11929286	-0.171104	9.894480	-0.067115	-0.011060	-0.002120	0.001585
17513	11929311	-0.138515	9.867561	-0.048711	-0.001870	0.002629	0.000486
17514	11929336	-0.129347	9.871902	-0.076946	-0.007896	0.002973	-0.001673
17515	11929361	-0.145657	9.870410	-0.054407	-0.002645	-0.001132	-0.000750
17516	11929386	-0.164565	9.866653	-0.072517	-0.002988	-0.004825	-0.002493
17517	11929411	-0.154691	9.867418	-0.051983	-0.001867	0.000496	-0.001897
17518	11929436	-0.147941	9.858487	-0.052002	-0.001575	0.001076	-0.004198
17519	11929461	-0.146418	9.859687	-0.067333	-0.004680	-0.001949	-0.002605
17520	11929486	-0.139955	9.877337	-0.068720	-0.008559	-0.004858	-0.002290
17521	11929511	-0.147939	9.864176	-0.052486	-0.002959	-0.001198	0.001435
17522	11929536	-0.144397	9.883345	-0.061585	-0.005199	-0.003903	-0.005947
17523	11929561	-0.145304	9.878938	-0.053461	0.001259	0.000682	-0.002155
17524	11929586	-0.160743	9.854601	-0.056702	-0.003153	0.000338	-0.004645
17525	11929611	-0.173025	9.855880	-0.058143	-0.000231	-0.004567	0.002508
17526	11929636	-0.151902	9.880007	-0.066348	-0.003532	-0.001600	-0.001901
17527	11929661	-0.141701	9.864475	-0.066336	-0.005713	0.000624	-0.000599
17528	11929686	-0.156174	9.872257	-0.059570	-0.007464	0.001036	-0.004500
17529	11929711	-0.138244	9.874911	-0.032314	-0.009291	-0.001769	-0.001821
17530	11929736	-0.124749	9.872902	-0.045407	-0.002892	-0.001454	0.000854
17531	11929761	-0.153546	9.887643	-0.040032	-0.000152	-0.002699	0.004175
17532	11929786	-0.134696	9.866272	-0.054459	-0.001264	-0.000854	-0.004147
17533	11929811	-0.133216	9.871328	-0.073120	-0.008301	-0.002985	-0.004782
17534	11929836	-0.149524	9.870790	-0.051458	-0.005075	0.002633	-0.004373
17535	11929861	-0.131688	9.869462	-0.060273	-0.002365	-0.002034	-0.000112
17536	11929886	-0.143620	9.861880	-0.031008	-0.004515	-0.000778	-0.000350
17537	11929911	-0.138281	9.865702	-0.059335	-0.001809	0.004891	-0.001423
17538	11929936	-0.112575	9.868060	-0.068541	-0.004037	0.000061	-0.004588
17539	11929961	-0.126827	9.856682	-0.049781	-0.002237	0.001842	-0.004128
17540	11929986	-0.147529	9.886158	-0.070295	-0.001788	-0.001958	-0.000045
17541	11930011	-0.138188	9.885983	-0.051164	-0.005330	0.000162	-0.006305
17542	11930036	-0.140605	9.882492	-0.103926	-0.000730	-0.001301	-0.001840
17543	11930061	-0.120487	9.886251	-0.054196	0.000440	-0.003931	-0.003207
17544	11930086	-0.124761	9.885216	-0.051710	-0.003465	-0.001602	-0.001773
17545	11930111	-0.116420	9.865909	-0.055166	-0.000450	0.001997	-0.003879
17546	11930136	-0.140658	9.855008	-0.044392	-0.007245	-0.003935	-0.004208
17547	11930161	-0.123339	9.852099	-0.057964	-0.002222	-0.000477	0.000282
17548	11930186	-0.119453	9.858645	-0.079028	-0.008008	-0.004070	-0.000426
17549	11930211	-0.129486	9.882744	-0.049726	-0.007822	0.000453	-0.000532
17550	11930236	-0.116090	9.877216	-0.050329	-0.003166	-0.002696	0.001556
17551	11930261	-0.108962	9.849061	-0.064725	-0.005804	0.001721	0.001970
17552	11930286	-0.127347	9.873136	-0.070822	-0.007942	-0.004202	-0.002223
17553	11930311	-0.144257	9.876794	-0.044860	-0.009130	0.001265	-0.003923
17554	11930336	-0.144928	9.882739	-0.030986	-0.005399	-0.001712	-0.006957
17555	11930361	-0.147566	9.880211	-0.053474	-0.007616	0.000004	-0.001560
17556	11930386	-0.144277	9.884948	-0.051126	-0.004281	0.004135	-0.001156
17557	11930411	-0.125209	9.849651	-0.054134	-0.000648	-0.001352	0.002772
17558	11930436	-0.141924	9.881616	-0.048248	-0.006799	-0.001732	-0.004777
17559	11930461	-0.142270	9.877861	-0.050763	0.001821	0.001401	-0.000228
17560	11930486	-0.146670	9.874688	-0.032875	-0.005436	-0.000153	-0.003172
17561	11930511	-0.148848	9.871650	-0.053027	-0.003815	0.003695	-0.000134
17562	11930536	-0.184556	9.873695	-0.060967	-0.007488	0.006537	-0.000620
17563	11930561	-0.170244	9.892957	-0.037108	-0.003383	-0.004452	-0.003645
17564	11930586	-0.149186	9.889257	-0.026681	-0.002830	0.000806	0.001636
17565	11930611	-0.149604	9.855197	-0.064026	-0.003946	0.001030	-0.003229
17566	11930636	-0.147507	9.883602	-0.058811	-0.003868	-0.000630	0.002025
17567	11930661	-0.128683	9.852786	-0.044444	-0.006720	0.004283	-0.001092
17568	11930686	-0.131959	9.858656	-0.059380	-0.002305	-0.003965	0.001228
17569	11930711	-0.136610	9.886657	-0.063170	-0.004028	-0.002456	-0.003695
17570	11930736	-0.133957	9.888781	-0.044413	-0.006729	0.002079	-0.004886
17571	11930761	-0.137948	9.868402	-0.048677	-0.010227	-0.000694	-0.004055
17572	11930786	-0.138232	9.860009	-0.059319	-0.005311	-0.000022	-0.002785
17573	11930811	-0.137632	9.858805	-0.073685	-0.003339	0.002731	-0.000206
17574	11930836	-0.129742	9.845728	-0.080446	-0.002563	0.002494	0.000943
17575	11930861	-0.129212	9.868190	-0.060262	-0.008111	-0.002258	0.002407
17576	11930886	-0.152735	9.893007	-0.088523	-0.004141	-0.002651	-0.001834
17577	11930911	-0.146450	9.878835	-0.087083	-0.002830	-0.002055	-0.006779
17578	11930936	-0.135400	9.887820	-0.107249	-0.004694	-0.001496	-0.002471
17579	11930961	-0.132631	9.887918	-0.081386	-0.003952	-0.004120	0.004183
17580	11930986	-0.113412	9.870648	-0.083396	-0.002995	-0.002301	-0.000302
17581	11931011	-0.129768	9.876420	-0.070833	-0.007761	-0.001419	0.000867
17582	11931036	-0.120594	9.871859	-0.075744	0.000222	-0.005026	0.000699
17583	11931061	-0.129279	9.876002	-0.073661	-0.008081	-0.003621	-0.001512
17584	11931086	-0.151001	9.858507	-0.065053	-0.001206	0.000060	0.001508
17585	11931111	-0.122167	9.880922	-0.079556	-0.000414	0.000905	-0.003178
17586	11931136	-0.136703	9.851525	-0.061722	-0.003850	0.002259	-0.004122
17587	11931161	-0.152590	9.868972	-0.067861	-0.004290	-0.000001	-0.002277
17588	11931186	-0.140954	9.900050	-0.010887	-0.004709	0.001082	-0.004128
17589	11931211	-0.141111	9.900170	-0.050689	-0.004266	-0.002645	0.000603
17590	11931236	-0.128416	9.868468	-0.046361	-0.006948	-0.002766	-0.000615
17591	11931261	-0.128403	9.874673	-0.048255	-0.010109	-0.004102	0.001118
17592	11931286	-0.159816	9.864676	-0.040989	-0.002740	0.001906	0.000809
17593	11931311	-0.144485	9.890014	-0.040061	-0.008853	-0.003774	-0.006129
17594	11931336	-0.149487	9.875226	-0.040025	-0.006977	0.000080	-0.000922
17595	11931361	-0.148493	9.864609	-0.027105	-0.006971	0.005952	-0.004862
17596	11931386	-0.154930	9.880589	-0.022817	-0.003390	0.001884	-0.003864
17597	11931411	-0.166887	9.855967	-0.035691	-0.002156	-0.002550	-0.001906
17598	11931436	-0.146152	9.843130	-0.047680	-0.008181	0.002003	0.000186
17599	11931461	-0.153809	9.886839	-0.058261	-0.006314	-0.004758	-0.001395
17600	11931486	-0.129866	9.868884	-0.043000	-0.008620	-0.000598	-0.002398
17601	11931511	-0.158124	9.882341	-0.046255	-0.005430	-0.002611	-0.003305
17602	11931536	-0.137661	9.876249	-0.035299	-0.008307	-0.006929	-0.005697
17603	11931561	-0.134188	9.876172	-0.057929	-0.000037	0.000976	-0.004840
17604	11931586	-0.139668	9.887157	-0.036263	-0.005075	0.000434	-0.003225
17605	11931611	-0.144475	9.868151	-0.069323	-0.006439	0.003317	-0.002636
17606	11931636	-0.125064	9.860241	-0.033042	-0.003006	0.000146	-0.001505
17607	11931661	-0.131142	9.866788	-0.062130	-0.009288	0.002301	-0.001927
17608	11931686	-0.139144	9.863079	-0.074118	-0.009149	-0.002484	-0.003490
17609	11931711	-0.122800	9.875035	-0.037374	-0.005215	-0.002728	0.001369
17610	11931736	-0.114489	9.863544	-0.054088	-0.010289	0.001568	-0.003152
17611	11931761	-0.130106	9.858690	-0.059371	-0.002186	-0.004041	-0.002687
17612	11931786	-0.129287	9.863351	-0.053617	-0.002983	-0.003153	-0.006208
17613	11931811	-0.149813	9.874608	-0.061596	-0.008942	0.001533	-0.000583
17614	11931836	-0.113406	9.853296	-0.065231	0.000276	-0.003161	-0.007564
17615	11931861	-0.143668	9.876390	-0.050170	-0.006202	-0.001967	0.001827
17616	11931886	-0.149372	9.885782	-0.078399	-0.006390	-0.004692	-0.002739
17617	11931911	-0.146862	9.868953	-0.062120	-0.007924	-0.002065	0.002344
17618	11931936	-0.138219	9.860574	-0.065091	-0.002520	-0.001399	-0.004660
17619	11931961	-0.144934	9.876426	-0.083189	-0.006023	-0.003909	-0.000682
17620	11931986	-0.139712	9.881717	-0.084281	-0.000493	-0.000310	0.001498
17621	11932011	-0.151697	9.871787	-0.064929	-0.008392	0.000116	-0.002323
17622	11932036	-0.149143	9.868224	-0.077966	-0.004369	-0.005686	-0.000697
17623	11932061	-0.147444	9.871597	-0.049166	-0.006068	-0.002615	-0.001898
17624	11932086	-0.151982	9.852592	-0.051056	-0.005135	0.000566	-0.002269
17625	11932111	-0.148782	9.871287	-0.061602	-0.007999	0.004523	0.001547
17626	11932136	-0.136185	9.850579	-0.061685	-0.005528	-0.001317	-0.002666
17627	11932161	-0.144998	9.864698	-0.061632	-0.006036	0.002216	-0.008608
17628	11932186	-0.106742	9.868743	-0.077157	-0.007294	0.000077	-0.000082
17629	11932211	-0.154411	9.864277	-0.072145	-0.005987	-0.005142	-0.003065
17630	11932236	-0.145015	9.871793	-0.060251	-0.003731	-0.001411	-0.001319
17631	11932261	-0.132752	9.848430	-0.073216	-0.006106	-0.003526	-0.002159
17632	11932286	-0.160506	9.884095	-0.039057	-0.005896	0.002690	0.000124
17633	11932311	-0.148876	9.876945	-0.058280	-0.005637	0.002564	0.000182
17634	11932336	-0.119509	9.869824	-0.034487	-0.005075	0.000231	-0.006825
17635	11932361	-0.128935	9.882076	-0.067462	-0.005955	-0.001976	-0.002089
17636	11932386	-0.122825	9.848375	-0.061805	-0.005010	-0.001439	-0.001836
17637	11932411	-0.119549	9.853907	-0.048811	-0.007628	-0.005607	0.002451
17638	11932436	-0.112597	9.861541	-0.045547	-0.001796	-0.001766	-0.000627
17639	11932461	-0.142208	9.870319	-0.054050	-0.001152	-0.002144	-0.003000
17640	11932486	-0.139606	9.859161	-0.066522	0.001371	-0.001070	-0.004345
17641	11932511	-0.125441	9.874516	-0.067044	-0.003815	-0.000699	0.001311
17642	11932536	-0.154937	9.870362	-0.067878	-0.003658	0.002722	0.000694
17643	11932561	-0.144027	9.868481	-0.059747	-0.005572	0.000170	-0.001621
17644	11932586	-0.147158	9.885518	-0.059267	-0.003225	-0.003545	-0.005308
17645	11932611	-0.157272	9.868646	-0.080793	-0.004169	0.000253	-0.004070
17646	11932636	-0.152666	9.875088	-0.064521	-0.004351	-0.002334	-0.003627
17647	11932661	-0.154144	9.874355	-0.048727	-0.002050	-0.007968	0.000502
17648	11932686	-0.154564	9.873334	-0.075059	-0.002049	0.003777	-0.006679
17649	11932711	-0.150135	9.866153	-0.067402	-0.002433	0.004163	-0.003281
17650	11932736	-0.133923	9.864491	-0.069937	-0.000797	-0.002912	-0.000373
17651	11932761	-0.146579	9.870969	-0.038161	-0.004768	0.000957	-0.002646
17652	11932786	-0.147539	9.888447	-0.065510	-0.004134	-0.002579	0.001498
17653	11932811	-0.155263	9.881375	-0.043410	-0.001936	0.000557	-0.003102
17654	11932836	-0.151792	9.884680	-0.070297	-0.000983	-0.001301	-0.001329
17655	11932861	-0.152084	9.868439	-0.064002	-0.007790	-0.000386	0.000618
17656	11932886	-0.155793	9.864765	-0.074564	-0.004147	-0.000452	-0.002596
17657	11932911	-0.151259	9.868670	-0.046857	0.000052	0.000726	0.000221
17658	11932936	-0.127592	9.874046	-0.038725	-0.007226	-0.000317	-0.002016
17659	11932961	-0.154502	9.893772	-0.046271	-0.006279	0.000019	-0.006054
17660	11932986	-0.112193	9.840155	-0.073283	-0.005847	-0.001653	-0.004075
17661	11933011	-0.131379	9.896894	-0.077038	-0.008482	0.001417	0.001721
17662	11933036	-0.132333	9.878391	-0.046869	-0.004300	0.002711	0.000051
17663	11933061	-0.121821	9.849959	-0.071376	-0.004575	-0.003369	-0.003637
17664	11933086	-0.122836	9.858690	-0.084351	-0.002714	-0.001600	-0.004914
17665	11933111	-0.124076	9.866686	-0.050222	-0.007285	-0.000314	-0.000347
17666	11933136	-0.126257	9.858918	-0.070815	-0.009236	0.000291	-0.005405
17667	11933161	-0.152527	9.859080	-0.041951	-0.005051	0.002451	0.003195
17668	11933186	-0.148599	9.862001	-0.074086	-0.006382	-0.000550	-0.000405
17669	11933211	-0.122502	9.864666	-0.071881	-0.004421	0.000118	-0.001566
17670	11933236	-0.119435	9.831522	-0.042165	-0.001130	-0.003052	-0.004548
17671	11933261	-0.134155	9.876678	-0.059796	-0.004517	-0.003180	-0.003697
17672	11933286	-0.146373	9.863673	-0.057815	-0.004150	-0.002456	-0.003438
17673	11933311	-0.118377	9.839792	-0.056086	-0.001501	-0.002716	0.005011
17674	11933336	-0.129149	9.860659	-0.063649	-0.004436	-0.003432	-0.001076
17675	11933361	-0.135951	9.872466	-0.064665	-0.002663	-0.000624	-0.001384
17676	11933386	-0.148022	9.882188	-0.059339	0.001019	0.002480	-0.001955
17677	11933411	-0.165414	9.899312	-0.045807	-0.000203	0.000654	0.001249
17678	11933436	-0.146400	9.859298	-0.050145	-0.004324	-0.003238	-0.003570
17679	11933461	-0.141981	9.851195	-0.044875	-0.007574	0.000915	0.000629
17680	11933486	-0.144653	9.883721	-0.064016	-0.008866	-0.000982	-0.000662
17681	11933511	-0.180265	9.904343	-0.045258	-0.002164	0.000039	0.000609
17682	11933536	-0.157521	9.899473	-0.018480	-0.004268	0.001484	-0.001362
17683	11933561	-0.144117	9.879571	-0.070760	-0.005129	-0.003898	-0.003317
17684	11933586	-0.134418	9.860992	-0.058380	-0.002263	-0.003196	-0.000373
17685	11933611	-0.130942	9.883289	-0.055532	-0.004160	-0.000072	-0.004202
17686	11933636	-0.150530	9.862636	-0.086063	-0.006993	-0.002064	-0.006701
17687	11933661	-0.134976	9.867686	-0.062148	-0.009277	0.001845	-0.003466
17688	11933686	-0.145777	9.887697	-0.045791	-0.008075	0.000386	-0.000785
17689	11933711	-0.137268	9.888412	-0.023835	-0.006323	0.000168	0.004400
17690	11933736	-0.160827	9.878720	-0.060626	-0.006400	-0.001718	0.000674
17691	11933761	-0.136901	9.871864	-0.057871	-0.004479	-0.004204	-0.001718
17692	11933786	-0.142523	9.863283	-0.060151	-0.011221	0.002718	-0.000122
17693	11933811	-0.116421	9.869164	-0.051298	-0.002971	-0.005081	0.001928
17694	11933836	-0.131187	9.873384	-0.060336	-0.003754	0.003761	0.001784
17695	11933861	-0.117134	9.878175	-0.050800	-0.002480	0.001380	-0.005032
17696	11933886	-0.151479	9.897299	-0.058282	-0.006302	0.003590	0.001669
17697	11933911	-0.151922	9.879579	-0.047716	-0.006977	0.006212	-0.001526
17698	11933936	-0.135134	9.879923	-0.055903	-0.007229	-0.000183	-0.002326
17699	11933961	-0.137874	9.862177	-0.045900	-0.005825	-0.002168	-0.002986
17700	11933986	-0.129129	9.856267	-0.056475	-0.005382	0.002369	-0.000077
17701	11934011	-0.156898	9.867263	-0.052528	-0.003201	0.000279	0.000675
17702	11934036	-0.148565	9.898732	-0.087141	-0.000720	-0.001629	-0.003119
17703	11934061	-0.136504	9.872864	-0.060255	-0.004230	-0.006339	-0.004683
17704	11934086	-0.142605	9.868939	-0.057806	-0.007670	-0.000319	-0.000280
17705	11934111	-0.133249	9.876119	-0.054064	-0.004947	-0.001504	-0.003503
17706	11934136	-0.144250	9.874714	-0.032919	-0.002658	-0.002751	0.000469
17707	11934161	-0.145883	9.862593	-0.048695	-0.006835	-0.002173	0.002146
17708	11934186	-0.149971	9.888239	-0.053945	-0.008351	0.001550	0.001921
17709	11934211	-0.135215	9.896829	-0.075606	-0.004435	-0.001359	-0.000294
17710	11934236	-0.134769	9.854519	-0.069872	-0.004420	-0.002076	-0.003502
17711	11934261	-0.124652	9.877668	-0.055091	-0.003086	-0.008062	-0.003859
17712	11934286	-0.139902	9.876730	-0.037259	-0.003117	0.000161	0.005871
17713	11934311	-0.151078	9.890395	-0.040561	-0.005718	-0.003318	-0.000876
17714	11934336	-0.160546	9.883565	-0.035718	-0.004721	-0.000396	-0.001499
17715	11934361	-0.147825	9.862143	-0.051556	-0.003655	-0.003742	-0.000693
17716	11934386	-0.148480	9.867085	-0.033723	-0.013496	-0.004627	-0.003810
17717	11934411	-0.120764	9.867615	-0.046435	-0.008310	-0.002529	-0.002855
17718	11934436	-0.166646	9.885700	-0.056718	-0.007494	-0.003806	-0.000104
17719	11934461	-0.159405	9.875279	-0.051075	-0.002617	-0.002235	-0.001390
17720	11934486	-0.138896	9.866458	-0.047286	-0.008164	0.000760	-0.004819
17721	11934511	-0.138965	9.871636	-0.044483	-0.003360	-0.001156	-0.003242
17722	11934536	-0.147257	9.878901	-0.030079	-0.002113	0.001638	-0.007398
17723	11934561	-0.171353	9.875881	-0.038521	-0.005043	-0.004466	-0.000046
17724	11934586	-0.162221	9.872283	-0.044323	-0.005065	0.002706	0.002103
17725	11934611	-0.141692	9.862023	-0.038273	-0.000440	-0.000195	-0.001450
17726	11934636	-0.133635	9.872829	-0.056516	-0.000757	-0.002204	-0.001271
17727	11934661	-0.136786	9.880922	-0.029596	-0.005220	-0.001055	-0.002851
17728	11934686	-0.142301	9.872042	-0.042521	-0.003684	0.001298	-0.003171
17729	11934711	-0.122626	9.890591	-0.030144	-0.003804	0.002712	-0.006555
17730	11934736	-0.153725	9.874855	-0.049647	-0.004996	0.000241	-0.002591
17731	11934761	-0.142093	9.864676	-0.057373	-0.004703	0.000894	-0.002006
17732	11934786	-0.133094	9.876336	-0.068434	-0.006150	-0.003654	0.000404
17733	11934811	-0.133521	9.883462	-0.099610	-0.002454	0.000672	-0.003169
17734	11934836	-0.117795	9.869845	-0.065575	-0.009017	-0.000146	-0.000405
17735	11934861	-0.130108	9.864026	-0.067493	-0.004250	0.000903	-0.002077
17736	11934886	-0.136122	9.881711	-0.050202	-0.004974	0.001861	0.001079
17737	11934911	-0.145305	9.888756	-0.052558	-0.003962	0.002071	-0.000273
17738	11934936	-0.123751	9.856208	-0.078085	-0.005412	-0.003187	-0.001644
17739	11934961	-0.142804	9.888238	-0.077983	-0.004975	0.001270	-0.005923
17740	11934986	-0.121114	9.867414	-0.064159	-0.004992	-0.004214	-0.000821
17741	11935011	-0.116690	9.854614	-0.061806	-0.004783	0.001477	0.000618
17742	11935036	-0.147451	9.879059	-0.071714	-0.006820	-0.003150	-0.003883
17743	11935061	-0.139803	9.878685	-0.071691	-0.009131	-0.007063	-0.001657
17744	11935086	-0.144676	9.886529	-0.061648	-0.007977	-0.000513	0.000811
17745	11935111	-0.128353	9.842295	-0.071864	-0.000033	-0.003159	-0.000250
17746	11935136	-0.148327	9.857707	-0.040997	-0.006928	-0.003736	-0.004146
17747	11935161	-0.153247	9.874312	-0.045304	-0.005567	-0.002293	-0.003752
17748	11935186	-0.141653	9.870028	-0.065530	-0.007015	0.001369	-0.002518
17749	11935211	-0.162204	9.856331	-0.024220	-0.002098	0.001651	-0.001758
17750	11935236	-0.166971	9.875422	-0.066779	-0.007775	-0.001034	-0.002912
17751	11935261	-0.150317	9.876123	-0.067883	-0.003204	0.001881	-0.007012
17752	11935286	-0.162767	9.879637	-0.059560	-0.011933	-0.001369	-0.003798
17753	11935311	-0.178061	9.881705	-0.052417	-0.004150	0.003943	-0.000647
17754	11935336	-0.181078	9.892006	-0.046073	-0.008966	0.000434	0.000507
17755	11935361	-0.154895	9.857838	-0.054937	-0.000706	-0.002138	-0.003384
17756	11935386	-0.155957	9.870751	-0.062476	-0.010721	0.001045	-0.001036
17757	11935411	-0.156166	9.848186	-0.045794	-0.006548	-0.001131	0.002344
17758	11935436	-0.144194	9.871407	-0.034351	-0.003867	0.001174	0.002222
17759	11935461	-0.124203	9.879941	-0.048837	-0.003521	0.000212	0.002213
17760	11935486	-0.134901	9.846937	-0.039143	-0.007984	0.001410	-0.004502
17761	11935511	-0.125407	9.876110	-0.078076	-0.004263	-0.007103	-0.000133
17762	11935536	-0.125516	9.863174	-0.039222	-0.006206	0.000092	0.000229
17763	11935561	-0.134128	9.858142	-0.026712	-0.006878	-0.001152	-0.004324
17764	11935586	-0.118941	9.864585	-0.032571	-0.002025	-0.001000	-0.004338
17765	11935611	-0.137541	9.888565	-0.064100	-0.003318	-0.000112	0.000355
17766	11935636	-0.130900	9.874612	-0.046903	-0.002636	-0.001723	-0.002031
17767	11935661	-0.095935	9.865660	-0.052851	-0.001994	0.002557	-0.001760
17768	11935686	-0.151526	9.890078	-0.051108	-0.002992	-0.002375	-0.002356
17769	11935711	-0.128780	9.895473	-0.043519	-0.006612	-0.005732	-0.003771
17770	11935736	-0.127151	9.880279	-0.041582	-0.006640	-0.002696	-0.003952
17771	11935761	-0.127341	9.860027	-0.051709	-0.003055	-0.000438	-0.002222
17772	11935786	-0.124598	9.870087	-0.055546	-0.002855	-0.001283	-0.006519
17773	11935811	-0.108366	9.835710	-0.059430	-0.005613	-0.002868	-0.002095
17774	11935836	-0.120970	9.859385	-0.067104	-0.002828	-0.001320	0.003038
17775	11935861	-0.147872	9.872752	-0.063598	-0.003900	0.002138	0.000046
17776	11935886	-0.160127	9.854269	-0.043390	-0.003704	-0.000180	0.000033
17777	11935911	-0.161986	9.875790	-0.087406	-0.008579	-0.001492	0.003703
17778	11935936	-0.143118	9.868020	-0.059665	-0.012027	-0.002408	-0.003162
17779	11935961	-0.149133	9.890108	-0.050659	-0.002868	-0.000109	-0.002022
17780	11935986	-0.135032	9.864551	-0.043547	-0.001165	-0.003435	-0.000629
17781	11936011	-0.170994	9.886837	-0.040954	-0.001657	-0.002083	0.001684
17782	11936036	-0.157532	9.872365	-0.045282	-0.006725	-0.002316	-0.005671
17783	11936061	-0.148498	9.890336	-0.065020	-0.003929	-0.003156	0.000533
17784	11936086	-0.140470	9.852359	-0.057321	-0.008467	-0.003105	0.002466
17785	11936111	-0.122448	9.852092	-0.055630	0.000761	0.000207	-0.003703
17786	11936136	-0.139157	9.854679	-0.052193	0.001837	-0.001448	-0.002810
17787	11936161	-0.144940	9.867104	-0.063556	-0.006257	-0.002553	-0.000930
17788	11936186	-0.149814	9.870688	-0.053568	-0.002357	-0.000426	-0.004011
17789	11936211	-0.131696	9.861891	-0.053112	-0.005412	0.000808	-0.006759
17790	11936236	-0.131680	9.876658	-0.056952	-0.002877	-0.001839	0.003101
17791	11936261	-0.143846	9.851789	-0.054021	-0.003277	-0.003734	-0.001524
17792	11936286	-0.136543	9.872633	-0.046354	-0.005783	-0.001325	-0.000736
17793	11936311	-0.139475	9.881669	-0.049707	-0.005230	0.001663	-0.000982
17794	11936336	-0.150170	9.859347	-0.056826	-0.006765	-0.002892	-0.003946
17795	11936361	-0.135930	9.868651	-0.064048	-0.006096	-0.003849	-0.004151
17796	11936386	-0.139450	9.873867	-0.035805	-0.006978	0.000279	-0.000209
17797	11936411	-0.152213	9.860013	-0.040057	-0.005417	-0.003134	-0.005558
17798	11936436	-0.139149	9.851358	-0.053091	-0.002155	0.001323	-0.003237
17799	11936461	-0.142710	9.883858	-0.070784	-0.004207	-0.000450	-0.000410
17800	11936486	-0.151656	9.870280	-0.059233	-0.006820	-0.003015	-0.000612
17801	11936511	-0.127816	9.856707	-0.052111	-0.008285	0.000499	-0.004825
17802	11936536	-0.148535	9.880960	-0.041622	0.002204	-0.000730	-0.000492
17803	11936561	-0.132641	9.864676	-0.050203	-0.007090	0.001365	-0.003734
17804	11936586	-0.134329	9.861801	-0.079949	-0.002339	-0.001135	-0.002798
17805	11936611	-0.152474	9.855257	-0.070272	-0.004646	-0.001381	-0.008689
17806	11936636	-0.140244	9.874451	-0.074627	-0.004536	0.001472	-0.004376
17807	11936661	-0.148039	9.884660	-0.066477	-0.003572	-0.002450	-0.003059
17808	11936686	-0.132704	9.881520	-0.065587	-0.003159	-0.003402	-0.000693
17809	11936711	-0.140135	9.882935	-0.102368	-0.008114	0.001805	0.000760
17810	11936736	-0.147147	9.889298	-0.057903	0.000370	-0.001341	-0.000498
17811	11936761	-0.161646	9.880037	-0.085005	-0.007166	0.002147	-0.000903
17812	11936786	-0.166775	9.892179	-0.046223	-0.006498	-0.000553	0.001393
17813	11936811	-0.166063	9.879176	-0.063488	-0.004156	-0.004399	-0.004025
17814	11936836	-0.152300	9.865461	-0.023810	0.001110	0.001320	-0.002600
17815	11936861	-0.140879	9.873497	-0.043519	-0.001450	0.005603	-0.001864
17816	11936886	-0.136803	9.861498	-0.062191	-0.003849	-0.002004	-0.004527
17817	11936911	-0.159200	9.864547	-0.062532	-0.006418	-0.005722	-0.001718
17818	11936936	-0.131868	9.873020	-0.036304	-0.008504	-0.000468	-0.002839
17819	11936961	-0.132483	9.851665	-0.036884	0.000791	-0.002483	0.002190
17820	11936986	-0.157469	9.872413	-0.048680	-0.001583	-0.004414	0.000516
17821	11937011	-0.139290	9.880770	-0.083716	-0.007392	-0.001223	-0.003615
17822	11937036	-0.174831	9.896066	-0.058161	-0.004604	-0.001682	0.001766
17823	11937061	-0.160007	9.879839	-0.040045	-0.003265	-0.001727	0.000089
17824	11937086	-0.156356	9.869020	-0.073658	0.001185	-0.001073	-0.002933
17825	11937111	-0.130705	9.868252	-0.064624	-0.005037	-0.000991	-0.004005
17826	11937136	-0.144768	9.894604	-0.062627	-0.004278	-0.002192	0.001690
17827	11937161	-0.134790	9.851533	-0.060779	-0.005072	-0.001702	-0.004588
17828	11937186	-0.141608	9.867228	-0.068421	-0.005084	0.002821	-0.004821
17829	11937211	-0.135134	9.876180	-0.059776	-0.006576	-0.000437	-0.003298
17830	11937236	-0.148243	9.885584	-0.033389	-0.002216	-0.000939	-0.003369
17831	11937261	-0.134021	9.860078	-0.060757	-0.003992	-0.003824	-0.008452
17832	11937286	-0.150872	9.881185	-0.058326	-0.002351	0.003712	-0.002964
17833	11937311	-0.145492	9.901546	-0.051166	-0.003257	-0.004646	-0.004669
17834	11937336	-0.120663	9.857636	-0.044505	-0.005652	0.000556	-0.002137
17835	11937361	-0.155181	9.881491	-0.051078	-0.005193	0.000504	0.000238
17836	11937386	-0.131597	9.890116	-0.036342	-0.004518	-0.002980	-0.002223
17837	11937411	-0.148702	9.854336	-0.038572	-0.007379	-0.003214	0.002402
17838	11937436	-0.105160	9.882106	-0.050895	-0.000998	-0.002325	0.003414
17839	11937461	-0.134801	9.853387	-0.057908	-0.003861	0.004917	-0.000006
17840	11937486	-0.128018	9.871119	-0.033029	-0.001821	-0.002994	0.000523
17841	11937511	-0.118728	9.850483	-0.040760	0.000383	-0.004251	-0.003913
17842	11937536	-0.125273	9.869873	-0.010880	-0.010517	-0.003469	-0.000802
17843	11937561	-0.138335	9.864698	-0.055492	-0.004849	0.001338	-0.004056
17844	11937586	-0.135736	9.863010	-0.067926	-0.005278	-0.000720	0.003944
17845	11937611	-0.128877	9.867956	-0.043977	-0.008954	0.001852	-0.000264
17846	11937636	-0.129680	9.856993	-0.042072	-0.006284	-0.009787	0.000823
17847	11937661	-0.116489	9.839962	-0.064729	-0.003640	-0.006649	-0.002757
17848	11937686	-0.169186	9.862518	-0.062047	-0.002716	-0.001204	-0.001124
17849	11937711	-0.143666	9.884262	-0.067433	-0.003985	-0.001548	-0.001253
17850	11937736	-0.165886	9.890186	-0.038591	-0.002003	-0.003324	-0.001203
17851	11937761	-0.164085	9.881742	-0.074494	-0.004773	-0.002980	-0.001644
17852	11937786	-0.153729	9.884614	-0.067380	-0.005172	-0.000280	-0.002530
17853	11937811	-0.148947	9.873001	-0.048761	-0.003126	-0.004509	-0.003386
17854	11937836	-0.164288	9.885305	-0.059131	-0.005186	-0.000285	-0.005278
17855	11937861	-0.131504	9.897202	-0.066073	-0.006182	-0.001012	-0.004004
17856	11937886	-0.139296	9.869469	-0.058367	-0.003475	-0.003348	-0.000690
17857	11937911	-0.156897	9.843063	-0.083189	-0.002965	0.000669	-0.001690
17858	11937936	-0.130612	9.860992	-0.055056	-0.001915	-0.004292	-0.001213
17859	11937961	-0.116053	9.873432	-0.050799	-0.004616	-0.003693	-0.000563
17860	11937986	-0.139562	9.863080	-0.075593	-0.004992	0.000311	0.001772
17861	11938011	-0.165978	9.880616	-0.064536	0.002323	-0.004007	0.004488
17862	11938036	-0.144180	9.853266	-0.088529	-0.002211	-0.003007	-0.002748
17863	11938061	-0.130098	9.856671	-0.051693	-0.004259	0.003555	-0.000204
17864	11938086	-0.131331	9.874171	-0.048889	0.001019	0.000152	-0.002095
17865	11938111	-0.133693	9.884111	-0.079989	-0.000964	-0.002150	-0.004542
17866	11938136	-0.102900	9.865988	-0.080122	-0.002828	-0.001524	-0.000876
17867	11938161	-0.151979	9.857146	-0.069291	-0.005245	-0.002484	-0.006966
17868	11938186	-0.139356	9.871815	-0.056450	-0.001712	-0.002807	-0.004347
17869	11938211	-0.141234	9.883596	-0.084161	-0.007501	-0.001740	-0.001955
17870	11938236	-0.139567	9.856176	-0.058832	-0.002810	-0.000034	0.000861
17871	11938261	-0.119174	9.828110	-0.068014	-0.005828	-0.001901	-0.000228
17872	11938286	-0.118489	9.847612	-0.070420	-0.004235	0.000258	-0.002213
17873	11938311	-0.124106	9.848137	-0.078076	-0.005063	-0.001819	-0.000359
17874	11938336	-0.128557	9.860004	-0.081855	-0.004853	0.001538	-0.002261
17875	11938361	-0.124327	9.852965	-0.053099	-0.006941	0.005385	0.000070
17876	11938386	-0.123887	9.859901	-0.071347	-0.004761	-0.005636	-0.003776
17877	11938411	-0.158812	9.880066	-0.084604	-0.006029	0.002354	-0.004435
17878	11938436	-0.117797	9.873809	-0.076617	-0.008227	0.005423	-0.000761
17879	11938461	-0.153061	9.876746	-0.080303	-0.007650	0.005367	-0.002296
17880	11938486	-0.152548	9.872802	-0.070250	-0.004305	-0.003228	0.001624
17881	11938511	-0.132772	9.842356	-0.048207	-0.010368	-0.006239	0.000657
17882	11938536	-0.147706	9.866757	-0.074626	-0.004300	-0.001356	0.000739
17883	11938561	-0.149331	9.875506	-0.057821	-0.003675	-0.001018	0.000092
17884	11938586	-0.149097	9.886636	-0.041449	-0.007269	0.001630	0.001851
17885	11938611	-0.134873	9.862966	-0.064129	-0.004347	-0.000069	-0.001444
17886	11938636	-0.163711	9.872128	-0.035200	-0.003032	0.001320	0.002611
17887	11938661	-0.151984	9.889860	-0.037171	-0.007297	-0.007668	0.004427
17888	11938686	-0.138775	9.868664	-0.067412	-0.006220	-0.006115	-0.004673
17889	11938711	-0.153502	9.861157	-0.053474	-0.004934	-0.001889	-0.002477
17890	11938736	-0.134180	9.840906	-0.048329	-0.003506	-0.004505	0.000587
17891	11938761	-0.120651	9.854587	-0.032056	-0.006437	-0.004557	0.002708
17892	11938786	-0.161340	9.870408	-0.044802	-0.004689	0.000371	-0.004900
17893	11938811	-0.125569	9.872653	-0.038745	-0.005154	-0.004855	0.002448
17894	11938836	-0.134471	9.871037	-0.064103	-0.004876	-0.001623	0.000605
17895	11938861	-0.132626	9.855932	-0.036285	-0.008985	-0.003514	-0.003113
17896	11938886	-0.127932	9.897099	-0.025357	-0.003754	-0.002706	-0.002740
17897	11938911	-0.127086	9.872007	-0.028679	-0.004926	-0.001691	0.001566
17898	11938936	-0.143339	9.884312	-0.040144	-0.002582	-0.002870	0.002840
17899	11938961	-0.155405	9.891283	-0.039554	-0.003833	-0.000194	-0.001372
17900	11938986	-0.118352	9.861290	-0.034026	-0.002530	0.001390	-0.001249
17901	11939011	-0.126740	9.857257	-0.056427	-0.007775	0.001298	0.001334
17902	11939036	-0.130831	9.874314	-0.057911	-0.006755	-0.003415	-0.005233
17903	11939061	-0.153533	9.899068	-0.050662	-0.001316	0.001214	-0.001571
17904	11939086	-0.165240	9.877729	-0.029970	-0.001438	0.001542	0.001514
17905	11939111	-0.146775	9.889507	-0.041057	-0.005718	-0.001191	-0.000416
17906	11939136	-0.145490	9.866303	-0.042540	-0.000998	0.001676	0.001897
17907	11939161	-0.134196	9.845241	-0.052607	-0.003166	0.001381	0.002797
17908	11939186	-0.144108	9.869671	-0.044929	-0.001742	0.000758	0.001378
17909	11939211	-0.144598	9.864689	-0.029570	-0.004731	-0.006010	0.002058
17910	11939236	-0.131885	9.870964	-0.026291	-0.002386	-0.003459	-0.000885
17911	11939261	-0.130779	9.869981	-0.053518	-0.010166	-0.000563	-0.003415
17912	11939286	-0.138820	9.907842	-0.054505	-0.004901	-0.002789	-0.001200
17913	11939311	-0.139303	9.878093	-0.063664	-0.001174	-0.001040	0.001433
17914	11939336	-0.126533	9.847005	-0.068486	-0.004795	-0.003950	0.001809
17915	11939361	-0.126925	9.872550	-0.063697	-0.001828	0.003208	-0.001110
17916	11939386	-0.107627	9.845990	-0.048422	-0.005555	-0.002804	-0.001387
17917	11939411	-0.118687	9.856838	-0.053185	-0.003360	-0.003091	-0.001271
17918	11939436	-0.159138	9.894771	-0.053918	-0.004727	-0.006469	-0.000446
17919	11939461	-0.129952	9.876102	-0.049767	-0.006135	-0.002697	-0.006840
17920	11939486	-0.108098	9.855376	-0.072877	-0.002231	-0.000550	-0.004075
17921	11939511	-0.110992	9.892779	-0.070455	-0.004975	-0.000800	-0.006127
17922	11939536	-0.132735	9.850365	-0.075647	-0.003438	-0.004767	-0.001468
17923	11939561	-0.149648	9.856905	-0.052012	-0.006478	-0.001398	0.000545
17924	11939586	-0.120519	9.877353	-0.030647	-0.004905	-0.000727	-0.003304
17925	11939611	-0.153543	9.878351	-0.091709	-0.012472	-0.000739	-0.005586
17926	11939636	-0.139036	9.853620	-0.076483	-0.009325	0.003327	-0.004485
17927	11939661	-0.144425	9.892546	-0.051605	-0.003164	-0.001021	-0.002284
17928	11939686	-0.149887	9.876240	-0.044360	-0.006214	0.000681	0.001717
17929	11939711	-0.120265	9.862410	-0.046451	-0.005713	-0.003847	-0.004345
17930	11939736	-0.144326	9.879969	-0.035792	-0.004150	0.001876	-0.002393
17931	11939761	-0.128435	9.878723	-0.065169	-0.000328	-0.002010	-0.003576
17932	11939786	-0.149767	9.869690	-0.050632	-0.005117	-0.003755	0.003223
17933	11939811	-0.183027	9.892927	-0.045653	-0.005145	-0.003447	-0.004272
17934	11939836	-0.158616	9.888041	-0.047696	-0.004309	-0.001290	-0.000806
17935	11939861	-0.157338	9.866209	-0.047259	-0.001945	-0.002791	0.004373
17936	11939886	-0.142786	9.872066	-0.044946	-0.000691	-0.006728	-0.003734
17937	11939911	-0.146081	9.884233	-0.067381	-0.005902	0.002618	-0.000335
17938	11939936	-0.142817	9.877205	-0.039612	-0.006808	0.000922	-0.000912
17939	11939961	-0.153766	9.880102	-0.052051	-0.004658	-0.000465	-0.001124
17940	11939986	-0.169850	9.872877	-0.058184	-0.005226	0.003399	-0.003411
17941	11940011	-0.132432	9.860736	-0.070908	0.000551	0.001119	-0.000101
17942	11940036	-0.144008	9.876938	-0.085138	-0.006530	-0.001985	-0.001571
17943	11940061	-0.135750	9.863604	-0.075665	-0.001131	0.001742	0.001183
17944	11940086	-0.152368	9.889239	-0.059236	-0.003564	-0.000505	0.000221
17945	11940111	-0.135780	9.886360	-0.043030	-0.001808	-0.003509	-0.000958
17946	11940136	-0.134348	9.865381	-0.066559	-0.000791	-0.000970	0.002715
17947	11940161	-0.133820	9.881586	-0.039688	-0.003684	-0.002898	-0.001010
17948	11940186	-0.141393	9.885656	-0.063077	-0.009173	-0.007652	-0.002559
17949	11940211	-0.126627	9.894609	-0.078992	-0.005376	0.000103	-0.002533
17950	11940236	-0.142013	9.864344	-0.066967	-0.005044	-0.000019	0.000998
17951	11940261	-0.102576	9.838921	-0.078175	-0.002226	-0.006682	-0.000784
17952	11940286	-0.140386	9.879333	-0.053083	-0.005557	-0.002030	0.000282
17953	11940311	-0.143527	9.896172	-0.039702	-0.000004	-0.001471	0.000274
17954	11940336	-0.121918	9.877966	-0.041174	-0.003420	0.000976	-0.003496
17955	11940361	-0.138743	9.864819	-0.064033	-0.008753	0.003463	-0.004168
17956	11940386	-0.106348	9.836065	-0.081037	-0.002477	-0.000685	-0.001514
17957	11940411	-0.131746	9.882641	-0.075613	-0.007275	-0.000969	-0.004390
17958	11940436	-0.117535	9.875844	-0.053693	-0.002573	-0.001921	-0.004600
17959	11940461	-0.133207	9.886001	-0.079514	-0.001885	0.000870	-0.004204
17960	11940486	-0.127462	9.866553	-0.044509	-0.003989	-0.001487	-0.002287
17961	11940511	-0.135280	9.889887	-0.056448	-0.002977	-0.003153	-0.003900
17962	11940536	-0.124829	9.886479	-0.042072	-0.005664	-0.000675	0.000034
17963	11940561	-0.137208	9.868433	-0.082300	-0.004908	-0.000468	-0.000416
17964	11940586	-0.163725	9.876615	-0.049077	-0.005645	0.002691	-0.000842
17965	11940611	-0.170450	9.878720	-0.037103	-0.004801	-0.003819	0.002006
17966	11940636	-0.165210	9.881423	-0.054396	-0.000352	-0.005299	-0.004239
17967	11940661	-0.133905	9.864363	-0.062185	-0.005612	0.001857	0.003956
17968	11940686	-0.151062	9.887117	-0.042920	-0.010088	-0.005020	-0.002863
17969	11940711	-0.146284	9.854573	-0.052088	-0.003903	0.000003	-0.001310
17970	11940736	-0.159176	9.862545	-0.056762	-0.007185	-0.003085	0.002591
17971	11940761	-0.122573	9.862022	-0.054108	-0.003715	0.004199	-0.003733
17972	11940786	-0.146344	9.857516	-0.057386	-0.000307	0.001419	-0.004716
17973	11940811	-0.130205	9.859430	-0.045924	-0.004165	0.000061	-0.001889
17974	11940836	-0.120174	9.851800	-0.034938	-0.005834	-0.003844	-0.002614
17975	11940861	-0.147850	9.866465	-0.054446	-0.003751	0.001362	-0.001243
17976	11940886	-0.147579	9.880090	-0.046248	-0.010116	0.000218	-0.002068
17977	11940911	-0.125802	9.860100	-0.055036	-0.008586	0.000507	0.000235
17978	11940936	-0.137849	9.860718	-0.043034	-0.002183	-0.001843	-0.001004
17979	11940961	-0.146028	9.876436	-0.053990	-0.005016	-0.003241	0.000404
17980	11940986	-0.148881	9.874529	-0.055421	-0.003812	-0.002901	-0.001200
17981	11941011	-0.135429	9.866160	-0.056048	0.001772	-0.001261	-0.001013
17982	11941036	-0.115611	9.872339	-0.040742	-0.002740	-0.006826	-0.003411
17983	11941061	-0.132427	9.886021	-0.049780	-0.003001	0.002022	-0.001116
17984	11941086	-0.138402	9.869719	-0.043018	-0.004993	-0.001951	-0.000226
17985	11941111	-0.147761	9.857575	-0.063553	-0.004981	0.001524	-0.006565
17986	11941136	-0.139708	9.856503	-0.048277	-0.003707	-0.002325	-0.003383
17987	11941161	-0.122030	9.860188	-0.057942	-0.003567	-0.002576	-0.001265
17988	11941186	-0.153764	9.875168	-0.039540	-0.008035	-0.000779	-0.001054
17989	11941211	-0.156829	9.899094	-0.055341	-0.007521	-0.000645	0.001070
17990	11941236	-0.182947	9.893426	-0.047560	-0.007658	-0.000378	0.002545
17991	11941261	-0.156101	9.872293	-0.040009	-0.005431	-0.001895	0.001374
17992	11941286	-0.150733	9.859920	-0.032872	-0.005259	-0.003764	-0.000174
17993	11941311	-0.137098	9.885176	-0.059797	-0.007443	0.002910	-0.000781
17994	11941336	-0.158746	9.861117	-0.055354	-0.003405	-0.001670	-0.000995
17995	11941361	-0.160099	9.881931	-0.021807	-0.003242	-0.000235	0.000928
17996	11941386	-0.134110	9.867567	-0.053552	-0.008772	-0.002159	-0.003818
17997	11941411	-0.159964	9.878008	-0.044331	-0.005385	-0.001700	-0.002025
17998	11941436	-0.148963	9.881780	-0.064521	-0.004140	-0.001112	-0.006959
17999	11941461	-0.164108	9.882042	-0.063460	-0.008217	-0.000905	0.003183
18000	11941486	-0.146502	9.884948	-0.083666	-0.007516	0.000642	-0.002645
18001	11941511	-0.158501	9.884442	-0.060651	-0.004914	-0.002146	0.000475
18002	11941536	-0.178597	9.890723	-0.053371	-0.003237	-0.004824	0.000843
18003	11941561	-0.141669	9.867499	-0.055491	-0.000457	-0.003818	-0.002435
18004	11941586	-0.136788	9.865850	-0.067904	-0.005397	-0.003582	-0.002673
18005	11941611	-0.135246	9.856321	-0.064571	-0.006424	-0.005145	0.001101
18006	11941636	-0.136110	9.880341	-0.053609	-0.004566	-0.001040	-0.000100
18007	11941661	-0.125535	9.872913	-0.055525	-0.003728	-0.001542	-0.001767
18008	11941686	-0.144573	9.851705	-0.017557	-0.008526	-0.003766	-0.003693
18009	11941711	-0.147458	9.872125	-0.052560	-0.003064	-0.002244	-0.002229
18010	11941736	-0.147956	9.909439	-0.041989	-0.005861	-0.000545	-0.000224
18011	11941761	-0.130682	9.871056	-0.061700	-0.006874	0.001247	0.001268
18012	11941786	-0.148063	9.886467	-0.059187	-0.008436	-0.002602	-0.002594
18013	11941811	-0.107032	9.869091	-0.038383	-0.005141	-0.003445	-0.003131
18014	11941836	-0.117210	9.859287	-0.057502	-0.002864	0.000025	0.002533
18015	11941861	-0.120758	9.844710	-0.068947	-0.007474	0.004148	0.002433
18016	11941886	-0.136588	9.874481	-0.042630	-0.000437	-0.000201	-0.001836
18017	11941911	-0.123168	9.870522	-0.051772	0.000431	0.002792	-0.002724
18018	11941936	-0.121745	9.846616	-0.069910	-0.002192	0.000682	0.000605
18019	11941961	-0.143762	9.884686	-0.063641	-0.002912	0.003117	-0.002009
18020	11941986	-0.145701	9.884489	-0.052587	-0.003213	-0.001669	-0.001581
18021	11942011	-0.119472	9.871767	-0.037377	-0.003898	-0.000326	-0.002664
18022	11942036	-0.145294	9.883552	-0.053427	-0.009681	-0.004184	-0.007989
18023	11942061	-0.127568	9.891176	-0.071827	-0.005601	-0.003068	-0.003442
18024	11942086	-0.121286	9.881229	-0.067960	-0.008450	-0.001955	-0.001313
18025	11942111	-0.149502	9.878347	-0.057788	-0.006896	-0.002907	-0.006580
18026	11942136	-0.142177	9.864451	-0.042468	-0.007249	-0.001413	-0.001056
18027	11942161	-0.125831	9.851831	-0.042091	-0.005193	0.002502	-0.001429
18028	11942186	-0.159925	9.892875	-0.085074	-0.005750	-0.002357	-0.003119
18029	11942211	-0.130062	9.860619	-0.061770	-0.002092	-0.002219	0.002968
18030	11942236	-0.140426	9.886209	-0.067943	-0.004089	-0.002463	-0.005172
18031	11942261	-0.135047	9.868389	-0.045916	-0.001518	-0.004800	-0.001478
18032	11942286	-0.119568	9.837466	-0.028225	-0.004515	-0.000852	-0.002222
18033	11942311	-0.149060	9.849553	-0.066444	-0.002560	0.001699	-0.005859
18034	11942336	-0.139507	9.862711	-0.082256	-0.008631	0.000052	0.001587
18035	11942361	-0.168369	9.861300	-0.043850	-0.001197	-0.003064	-0.005697
18036	11942386	-0.145819	9.864902	-0.075087	-0.005689	-0.000162	-0.003240
18037	11942411	-0.144377	9.893413	-0.046318	-0.006527	0.000156	0.001580
18038	11942436	-0.123734	9.866457	-0.034879	-0.008038	-0.000916	-0.004843
18039	11942461	-0.133468	9.856651	-0.053125	-0.002855	-0.005086	-0.002435
18040	11942486	-0.112889	9.843569	-0.048889	-0.002834	-0.001928	-0.007425
18041	11942511	-0.149592	9.878032	-0.036724	-0.004068	0.001155	-0.004449
18042	11942536	-0.146539	9.877461	-0.059250	-0.008515	-0.004414	-0.004850
18043	11942561	-0.147759	9.846598	-0.027532	-0.009900	-0.000751	-0.001879
18044	11942586	-0.136188	9.883678	-0.054028	-0.007138	0.001040	-0.003994
18045	11942611	-0.155086	9.870605	-0.052573	-0.000845	-0.003697	-0.003137
18046	11942636	-0.152774	9.876134	-0.040125	0.000221	-0.000367	0.002585
18047	11942661	-0.149212	9.895295	-0.049204	-0.003779	-0.004001	-0.001591
18048	11942686	-0.141947	9.881985	-0.041065	-0.005659	0.000940	-0.001629
18049	11942711	-0.135111	9.876450	-0.045949	-0.002128	-0.003059	0.002708
18050	11942736	-0.140251	9.874131	-0.054535	-0.002298	-0.001507	0.005026
18051	11942761	-0.138173	9.850895	-0.053076	-0.002687	-0.004049	-0.002050
18052	11942786	-0.143491	9.864734	-0.062648	-0.004201	-0.001107	-0.004524
18053	11942811	-0.128249	9.867376	-0.067526	-0.003842	-0.001872	-0.000876
18054	11942836	-0.128875	9.872977	-0.061737	-0.004132	-0.003046	-0.003512
18055	11942861	-0.135064	9.879141	-0.067070	-0.000805	-0.002983	-0.002618
18056	11942886	-0.142485	9.887836	-0.052150	0.001380	-0.005597	-0.006491
18057	11942911	-0.137286	9.871703	-0.078966	-0.002576	0.000735	-0.001380
18058	11942936	-0.122470	9.868580	-0.079031	-0.003313	-0.000438	-0.000483
18059	11942961	-0.139281	9.867448	-0.050676	-0.005533	-0.000858	0.002083
18060	11942986	-0.145608	9.859816	-0.083700	-0.004704	-0.000712	0.002918
18061	11943011	-0.142505	9.859792	-0.048704	-0.006491	-0.000489	0.004016
18062	11943036	-0.142233	9.878545	-0.064101	-0.002840	0.002991	-0.002138
18063	11943061	-0.133043	9.870680	-0.070305	-0.008370	-0.002663	-0.001894
18064	11943086	-0.149125	9.869778	-0.086543	-0.005879	-0.002360	-0.002411
18065	11943111	-0.109214	9.879745	-0.085783	-0.006753	-0.001079	-0.000733
18066	11943136	-0.115639	9.870415	-0.038814	-0.005549	-0.000809	-0.005810
18067	11943161	-0.150731	9.861016	-0.042040	-0.001162	-0.001563	-0.001779
18068	11943186	-0.148835	9.865310	-0.042395	-0.009491	0.000753	-0.000334
18069	11943211	-0.126545	9.886815	-0.065609	-0.004219	-0.001609	0.003938
18070	11943236	-0.151681	9.871835	-0.068379	-0.001451	0.001401	-0.001888
18071	11943261	-0.147646	9.885976	-0.058818	-0.002703	0.002407	-0.006753
18072	11943286	-0.183125	9.864397	-0.041344	-0.004494	-0.001103	0.001635
18073	11943311	-0.151271	9.868675	-0.046748	-0.007449	-0.001356	-0.002916
18074	11943336	-0.142523	9.848677	-0.035306	-0.004059	0.000837	-0.002527
18075	11943361	-0.165806	9.890813	-0.048117	-0.006604	0.000407	-0.002325
18076	11943386	-0.165555	9.904067	-0.045776	-0.003421	0.003044	-0.003986
18077	11943411	-0.152911	9.876387	-0.025182	-0.006580	0.001828	-0.002451
18078	11943436	-0.170481	9.872966	-0.032822	-0.001691	-0.005391	-0.003844
18079	11943461	-0.154430	9.895313	-0.054441	-0.005835	-0.001784	-0.004587
18080	11943486	-0.144696	9.870422	-0.031474	-0.006175	0.000992	-0.001428
18081	11943511	-0.137364	9.859222	-0.038243	-0.000474	0.000972	0.000031
18082	11943536	-0.137552	9.868050	-0.026204	-0.008139	-0.001556	-0.001314
18083	11943561	-0.128143	9.858406	-0.069888	-0.006971	0.001755	-0.002642
18084	11943586	-0.132047	9.847471	-0.040709	-0.000270	-0.001952	-0.008197
18085	11943611	-0.152961	9.855974	-0.054940	-0.001849	0.000037	-0.001132
18086	11943636	-0.151095	9.869959	-0.069254	-0.008003	0.000326	0.000815
18087	11943661	-0.124225	9.864430	-0.026272	-0.006031	-0.005922	-0.004676
18088	11943686	-0.151760	9.875499	-0.059283	-0.001189	-0.000858	-0.002931
18089	11943711	-0.146464	9.842128	-0.075538	-0.006451	-0.002563	-0.002539
18090	11943736	-0.133558	9.864230	-0.052101	-0.006790	0.004473	-0.001794
18091	11943761	-0.129376	9.881568	-0.066063	-0.004411	-0.002268	-0.002094
18092	11943786	-0.133006	9.871775	-0.079952	-0.003666	-0.001223	-0.001135
18093	11943811	-0.145964	9.875221	-0.067412	-0.006899	0.008094	-0.001198
18094	11943836	-0.127972	9.880649	-0.066541	-0.003682	-0.000967	-0.003633
18095	11943861	-0.145019	9.865827	-0.042034	-0.003070	-0.002047	-0.000748
18096	11943886	-0.134571	9.871286	-0.049292	-0.002213	-0.000480	0.000413
18097	11943911	-0.126012	9.878177	-0.058436	-0.003374	-0.002567	-0.000048
18098	11943936	-0.148265	9.860354	-0.059241	-0.007205	-0.003032	-0.004014
18099	11943961	-0.140121	9.855944	-0.043975	-0.003213	0.000733	0.001127
18100	11943986	-0.151983	9.866651	-0.070711	-0.005046	0.002125	0.001068
18101	11944011	-0.158525	9.892568	-0.064928	-0.007504	0.003181	0.004037
18102	11944036	-0.144643	9.875589	-0.059211	-0.009689	0.002672	-0.004873
18103	11944061	-0.146998	9.906226	-0.048666	-0.008667	-0.003514	-0.005554
18104	11944086	-0.138377	9.881052	-0.070785	-0.007060	-0.001018	0.002211
18105	11944111	-0.148285	9.870996	-0.072638	-0.006412	0.002545	-0.001231
18106	11944136	-0.129847	9.885939	-0.073260	-0.004542	-0.002010	0.000086
18107	11944161	-0.122085	9.867765	-0.056912	-0.008866	-0.000596	0.000875
18108	11944186	-0.140652	9.858348	-0.045370	-0.007552	0.000066	-0.001563
18109	11944211	-0.137978	9.874142	-0.053082	-0.004163	-0.001879	-0.001901
18110	11944236	-0.149420	9.872955	-0.045784	-0.008824	-0.002350	-0.004201
18111	11944261	-0.121630	9.859512	-0.044487	-0.005150	-0.001183	-0.003183
18112	11944286	-0.153388	9.883939	-0.053926	-0.007591	-0.003371	-0.006773
18113	11944311	-0.135042	9.881141	-0.073680	-0.006947	0.003439	-0.001802
18114	11944336	-0.143266	9.880316	-0.057348	-0.005682	-0.000615	-0.002913
18115	11944361	-0.140627	9.870108	-0.070313	-0.004868	-0.003889	0.000207
18116	11944386	-0.144795	9.853792	-0.061203	-0.003026	-0.005667	-0.002052
18117	11944411	-0.122780	9.870420	-0.045001	-0.005589	0.000219	-0.007275
18118	11944436	-0.139597	9.870322	-0.083695	-0.009063	0.003664	0.000580
18119	11944461	-0.152828	9.877121	-0.042043	-0.000571	0.000186	-0.001515
18120	11944486	-0.140524	9.880011	-0.035317	-0.003749	-0.003231	-0.004345
18121	11944511	-0.124231	9.878510	-0.047397	-0.003339	-0.003803	-0.002041
18122	11944536	-0.133258	9.874874	-0.035378	-0.003438	-0.004245	0.002190
18123	11944561	-0.144994	9.861076	-0.041562	-0.003801	-0.005235	-0.000700
18124	11944586	-0.163666	9.867847	-0.033824	-0.002196	-0.003259	-0.000113
18125	11944611	-0.159181	9.863467	-0.054385	-0.004509	-0.000773	0.003362
18126	11944636	-0.154423	9.864686	-0.067911	-0.000317	-0.002135	-0.002617
18127	11944661	-0.162605	9.905733	-0.060119	-0.006615	-0.003147	-0.000104
18128	11944686	-0.142640	9.865992	-0.051141	-0.003569	-0.002514	-0.003126
18129	11944711	-0.166484	9.883642	-0.076008	0.002220	-0.001441	-0.001276
18130	11944736	-0.144334	9.851372	-0.058300	-0.005428	-0.006554	-0.002179
18131	11944761	-0.152046	9.864110	-0.059291	0.000136	-0.002116	0.000459
18132	11944786	-0.142957	9.859389	-0.053101	0.000520	-0.004116	0.001667
18133	11944811	-0.132211	9.866869	-0.038745	-0.003485	-0.004898	0.000903
18134	11944836	-0.156693	9.884752	-0.048129	-0.008483	-0.002919	-0.001378
18135	11944861	-0.129229	9.863770	-0.050225	-0.005434	-0.001894	0.001694
18136	11944886	-0.123586	9.870484	-0.050698	-0.007536	-0.002186	0.002594
18137	11944911	-0.132608	9.876926	-0.075173	-0.004114	0.000712	-0.001696
18138	11944936	-0.141258	9.884858	-0.073714	-0.002573	-0.001585	0.000215
18139	11944961	-0.127048	9.881987	-0.060790	-0.005394	0.002818	0.000690
18140	11944986	-0.128169	9.851538	-0.055524	-0.002094	0.001328	-0.003432
18141	11945011	-0.129876	9.868801	-0.038240	-0.006580	-0.004372	-0.000624
18142	11945036	-0.144904	9.860323	-0.054934	-0.004920	-0.004472	-0.002104
18143	11945061	-0.124516	9.863347	-0.049297	-0.005364	-0.002548	-0.002222
18144	11945086	-0.144619	9.860383	-0.026638	-0.008726	0.002755	-0.003663
18145	11945111	-0.154738	9.847509	-0.061532	-0.011317	0.001612	-0.003085
18146	11945136	-0.142405	9.881628	-0.049180	-0.006570	0.003375	-0.002827
18147	11945161	-0.106545	9.863210	-0.025926	-0.002231	-0.004235	-0.000317
18148	11945186	-0.133134	9.863551	-0.039131	-0.008225	0.003418	0.000447
18149	11945211	-0.122671	9.858286	-0.027321	-0.001502	-0.000857	-0.000428
18150	11945236	-0.119218	9.858198	-0.049279	-0.007638	0.004977	-0.001602
18151	11945261	-0.133813	9.875374	-0.036305	-0.006711	-0.004509	-0.003639
18152	11945286	-0.142482	9.882826	-0.034375	-0.003366	0.003374	-0.002071
18153	11945311	-0.160794	9.875329	-0.055801	-0.007786	0.001617	0.000055
18154	11945336	-0.141992	9.892477	-0.045340	-0.007562	0.002852	0.001341
18155	11945361	-0.157439	9.889500	-0.017031	-0.006171	-0.001466	-0.005290
18156	11945386	-0.132339	9.870505	-0.027680	-0.006783	-0.000049	-0.000663
18157	11945411	-0.150234	9.875067	-0.061672	-0.002004	0.003341	0.002868
18158	11945436	-0.161161	9.898095	-0.055398	-0.004517	-0.000729	-0.003944
18159	11945461	-0.157962	9.874720	-0.044397	-0.000279	-0.003421	-0.001088
18160	11945486	-0.151559	9.873094	-0.088435	-0.007714	-0.002845	-0.001255
18161	11945511	-0.156890	9.871859	-0.073580	-0.005594	-0.003588	-0.005238
18162	11945536	-0.143683	9.876609	-0.063064	-0.008327	-0.001891	-0.003624
18163	11945561	-0.162854	9.856426	-0.062554	-0.003137	-0.003919	0.001615
18164	11945586	-0.122315	9.862651	-0.094821	-0.006683	0.000983	-0.001244
18165	11945611	-0.126384	9.880974	-0.086655	-0.006689	0.001182	-0.000912
18166	11945636	-0.147388	9.872636	-0.054921	-0.005555	0.002246	0.004669
18167	11945661	-0.148320	9.867653	-0.070828	-0.000219	-0.001565	-0.007935
18168	11945686	-0.154413	9.897360	-0.063572	-0.001247	-0.003515	-0.007752
18169	11945711	-0.159429	9.885055	-0.069750	-0.004302	-0.001626	-0.002088
18170	11945736	-0.133917	9.857176	-0.056469	-0.002648	-0.001204	-0.002289
18171	11945761	-0.151020	9.888591	-0.046266	-0.007148	-0.002573	-0.000231
18172	11945786	-0.152436	9.889049	-0.046779	-0.004728	-0.002013	0.000602
18173	11945811	-0.154105	9.881830	-0.072673	-0.002480	-0.002168	0.001110
18174	11945836	-0.128800	9.863307	-0.050241	-0.005983	-0.002943	-0.000493
18175	11945861	-0.161720	9.880167	-0.062610	-0.002068	-0.003192	0.000466
18176	11945886	-0.114721	9.843524	-0.048350	-0.007097	0.001821	0.000240
18177	11945911	-0.119541	9.838897	-0.028662	-0.008582	0.002509	-0.000393
18178	11945936	-0.118191	9.860780	-0.062760	-0.005943	-0.002167	-0.001006
18179	11945961	-0.112736	9.835937	-0.046916	-0.009146	0.000039	0.000490
18180	11945986	-0.135564	9.877486	-0.052605	-0.006343	-0.001647	0.001954
18181	11946011	-0.129409	9.871362	-0.049760	-0.004730	-0.002475	-0.005108
18182	11946036	-0.126485	9.874693	-0.048762	-0.009429	-0.000668	0.003959
18183	11946061	-0.142623	9.887296	-0.017115	-0.004517	0.001417	-0.000535
18184	11946086	-0.135324	9.848857	-0.041551	-0.006488	-0.001268	-0.001119
18185	11946111	-0.126404	9.858817	-0.033952	-0.005965	-0.001448	0.001691
18186	11946136	-0.141921	9.884913	-0.046346	-0.007087	-0.000635	-0.002010
18187	11946161	-0.145614	9.867573	-0.032431	-0.004365	0.000513	-0.001435
18188	11946186	-0.154867	9.896416	-0.063983	-0.006421	0.002602	-0.004432
18189	11946211	-0.126893	9.876315	0.001043	-0.005010	-0.005510	-0.002688
18190	11946236	-0.130934	9.841917	-0.049287	-0.002851	-0.003283	-0.004862
18191	11946261	-0.150236	9.874585	-0.060651	-0.006567	-0.002685	0.002077
18192	11946286	-0.147938	9.875995	-0.057351	-0.002927	-0.000501	-0.001194
18193	11946311	-0.145643	9.876423	-0.052582	-0.004396	0.001280	-0.004065
18194	11946336	-0.163317	9.892084	-0.067785	-0.004970	0.001666	-0.000271
18195	11946361	-0.147352	9.873903	-0.075537	-0.006272	-0.000170	-0.003293
18196	11946386	-0.133360	9.856422	-0.068896	-0.004637	-0.001243	-0.001960
18197	11946411	-0.145903	9.871642	-0.081297	-0.006644	-0.000702	-0.007340
18198	11946436	-0.129576	9.848525	-0.046301	-0.011420	0.003034	-0.000575
18199	11946461	-0.131067	9.858195	-0.059360	-0.003670	0.002846	-0.002779
18200	11946486	-0.146304	9.861897	-0.065537	-0.001125	-0.001049	-0.003570
18201	11946511	-0.147670	9.862536	-0.077977	-0.001593	-0.000089	-0.001197
18202	11946536	-0.160056	9.866074	-0.070630	-0.008017	-0.001287	0.002922
18203	11946561	-0.146382	9.880729	-0.087066	-0.005297	0.004050	0.001922
18204	11946586	-0.156717	9.899907	-0.076991	-0.000951	-0.000340	-0.004528
18205	11946611	-0.143754	9.878850	-0.054944	-0.008141	-0.001889	-0.002851
18206	11946636	-0.148707	9.863274	-0.064530	-0.003999	-0.001101	-0.004333
18207	11946661	-0.151210	9.867330	-0.052462	-0.007038	-0.002056	-0.000672
18208	11946686	-0.138719	9.861450	-0.061236	-0.004105	-0.005884	-0.002177
18209	11946711	-0.161519	9.892803	-0.051550	-0.003396	-0.003800	-0.000308
18210	11946736	-0.117752	9.867080	-0.070855	-0.008291	-0.005051	-0.002038
18211	11946761	-0.143806	9.849083	-0.063089	-0.006481	0.004539	-0.004552
18212	11946786	-0.143478	9.862347	-0.062128	-0.005966	0.000544	-0.001365
18213	11946811	-0.156972	9.875848	-0.055843	-0.005355	0.001660	0.001776
18214	11946836	-0.123850	9.847258	-0.051266	-0.000235	-0.000906	-0.003770
18215	11946861	-0.121318	9.871839	-0.043580	-0.004937	-0.001894	-0.002606
18216	11946886	-0.136360	9.863234	-0.052153	-0.002940	0.000088	0.001116
18217	11946911	-0.140440	9.852160	-0.075566	-0.005588	0.000420	-0.004576
18218	11946936	-0.128612	9.879221	-0.035802	-0.010663	-0.002830	-0.002277
18219	11946961	-0.138948	9.867615	-0.030037	-0.005652	-0.003578	-0.001581
18220	11946986	-0.127390	9.861801	-0.044009	-0.004220	-0.000070	-0.002792
18221	11947011	-0.119097	9.886488	-0.038709	-0.010334	0.001448	0.003327
18222	11947036	-0.135514	9.865062	-0.045950	-0.001344	-0.004154	-0.002497
18223	11947061	-0.134178	9.869123	-0.031987	-0.003980	-0.001355	0.000665
18224	11947086	-0.128035	9.868680	-0.028190	-0.004938	0.000174	-0.002334
18225	11947111	-0.135214	9.877163	-0.030600	-0.000255	-0.001678	0.001165
18226	11947136	-0.114818	9.851146	-0.049829	-0.003368	-0.002833	-0.001013
18227	11947161	-0.119658	9.857185	-0.046437	-0.007083	0.001439	0.001132
18228	11947186	-0.127069	9.887425	-0.074245	-0.002559	-0.002311	-0.004470
18229	11947211	-0.142720	9.878008	-0.060787	-0.001158	0.002369	-0.004452
18230	11947236	-0.139628	9.867199	-0.065561	-0.001447	0.003733	0.002231
18231	11947261	-0.131888	9.883738	-0.054549	-0.003381	-0.002384	-0.001454
18232	11947286	-0.149224	9.862237	-0.058766	-0.002106	-0.000289	-0.003307
18233	11947311	-0.169819	9.885569	-0.081160	-0.007395	0.001432	-0.000720
18234	11947336	-0.135112	9.848346	-0.070320	-0.008260	-0.001751	0.000992
18235	11947361	-0.138555	9.864771	-0.091917	-0.002608	-0.000493	-0.000165
18236	11947386	-0.137710	9.863934	-0.067872	-0.007948	-0.001226	0.002922
18237	11947411	-0.143134	9.876615	-0.063080	-0.008895	-0.000151	-0.002643
18238	11947436	-0.140262	9.870028	-0.065061	-0.004926	-0.004290	-0.003839
18239	11947461	-0.155759	9.887240	-0.054884	-0.005049	-0.000215	-0.002401
18240	11947486	-0.168786	9.872622	-0.071146	-0.004287	-0.000004	-0.001824
18241	11947511	-0.185733	9.887390	-0.057616	-0.004745	0.000177	-0.004318
18242	11947536	-0.160998	9.878206	-0.027064	-0.005376	-0.001764	-0.000487
18243	11947561	-0.137413	9.864056	-0.044005	-0.002159	-0.004491	-0.001217
18244	11947586	-0.151841	9.849459	-0.063084	-0.004441	0.001034	0.000301
18245	11947611	-0.159626	9.888429	-0.042915	-0.004368	0.000511	-0.000669
18246	11947636	-0.146401	9.879245	-0.083181	-0.006706	0.003962	0.001667
18247	11947661	-0.153906	9.887062	-0.041960	-0.006607	0.002667	-0.002702
18248	11947686	-0.166217	9.885449	-0.039987	-0.005144	0.001152	0.002286
18249	11947711	-0.169835	9.888532	-0.088819	-0.008841	0.000431	-0.000396
18250	11947736	-0.139608	9.900899	-0.066490	-0.005512	0.000753	0.000623
18251	11947761	-0.148491	9.877312	-0.050697	0.001347	-0.000033	-0.001842
18252	11947786	-0.147021	9.882173	-0.057827	-0.005551	-0.004414	0.002196
18253	11947811	-0.147177	9.891229	-0.060254	-0.001930	0.000294	-0.002471
18254	11947836	-0.129391	9.879142	-0.062206	-0.004448	-0.002918	-0.000753
18255	11947861	-0.127380	9.881737	-0.075097	-0.010748	-0.004116	0.001055
18256	11947886	-0.109993	9.849360	-0.054118	-0.007540	-0.008783	-0.000392
18257	11947911	-0.095302	9.843092	-0.035034	-0.004642	-0.003311	-0.004351
18258	11947936	-0.149758	9.869255	-0.053527	-0.005877	-0.004159	0.001173
18259	11947961	-0.128382	9.854299	-0.019561	-0.004621	-0.003304	0.000978
18260	11947986	-0.121317	9.877189	-0.052175	-0.005907	0.000940	0.000554
18261	11948011	-0.115029	9.863506	-0.051783	-0.002436	-0.004375	-0.006410
18262	11948036	-0.114705	9.850036	-0.070029	-0.001410	-0.004029	-0.003202
18263	11948061	-0.121158	9.876914	-0.065634	-0.003801	0.005834	0.006026
18264	11948086	-0.125067	9.867127	-0.048788	-0.007224	0.001751	-0.001171
18265	11948111	-0.122533	9.865940	-0.062304	-0.000043	0.001757	0.000799
18266	11948136	-0.144222	9.883081	-0.053035	-0.004853	-0.000137	0.000870
18267	11948161	-0.143912	9.849809	-0.048235	-0.005707	0.000158	-0.004449
18268	11948186	-0.136953	9.873808	-0.060776	-0.004937	0.000043	-0.003102
18269	11948211	-0.136408	9.853075	-0.038692	-0.003782	0.000127	-0.004460
18270	11948236	-0.126778	9.859758	-0.064635	-0.006986	-0.001864	-0.002860
18271	11948261	-0.144363	9.857768	-0.072705	-0.005582	-0.001973	-0.005102
18272	11948286	-0.141873	9.859819	-0.081267	-0.008123	-0.002074	0.000162
18273	11948311	-0.113680	9.852865	-0.068953	-0.008085	-0.003093	0.004768
18274	11948336	-0.158262	9.872058	-0.057320	-0.003657	-0.002883	0.008230
18275	11948361	-0.166660	9.892906	-0.062430	-0.011098	0.001171	0.001216
18276	11948386	-0.145573	9.873665	-0.058701	-0.012738	0.001843	-0.003909
18277	11948411	-0.152884	9.870267	-0.090906	-0.002296	-0.000095	0.001051
18278	11948436	-0.178414	9.894629	-0.091170	-0.007299	0.000335	0.001459
18279	11948461	-0.152733	9.877724	-0.050652	-0.003088	-0.003406	0.000399
18280	11948486	-0.140718	9.880473	-0.065536	-0.001827	-0.004476	0.004488
18281	11948511	-0.152730	9.879364	-0.064976	-0.008348	-0.005053	-0.000431
18282	11948536	-0.166664	9.882683	-0.044816	-0.001229	0.000633	-0.001119
18283	11948561	-0.147300	9.870579	-0.075074	-0.005157	-0.004868	-0.000888
18284	11948586	-0.131007	9.855766	-0.055935	-0.005989	0.001520	0.000623
18285	11948611	-0.115156	9.845203	-0.065608	-0.007205	-0.000903	-0.002661
18286	11948636	-0.124988	9.871793	-0.074696	-0.005393	0.004557	-0.004491
18287	11948661	-0.128659	9.860182	-0.062694	-0.007682	-0.000061	-0.002523
18288	11948686	-0.133946	9.859901	-0.048788	-0.001119	-0.002784	0.001352
18289	11948711	-0.142572	9.891433	-0.039073	-0.011191	-0.002524	-0.003748
18290	11948736	-0.110971	9.868304	-0.021518	-0.009134	-0.000483	-0.003107
18291	11948761	-0.155037	9.873624	-0.063485	-0.009623	-0.001137	-0.001432
18292	11948786	-0.136161	9.892565	-0.076583	-0.006585	-0.002246	-0.002861
18293	11948811	-0.130729	9.870042	-0.057386	-0.005631	0.000036	-0.001630
18294	11948836	-0.126060	9.879531	-0.054545	-0.006676	-0.005467	0.000907
18295	11948861	-0.140964	9.896091	-0.063543	-0.011094	-0.002830	0.003178
18296	11948886	-0.131841	9.877944	-0.048327	-0.003123	-0.002439	-0.000753
18297	11948911	-0.125342	9.856976	-0.067018	-0.005899	0.002156	-0.006047
18298	11948936	-0.126596	9.876555	-0.045445	-0.004785	0.003800	-0.002255
18299	11948961	-0.132529	9.870245	-0.072740	-0.006115	0.001261	-0.000402
18300	11948986	-0.130237	9.865343	-0.059812	-0.007039	-0.002518	-0.006065
18301	11949011	-0.165554	9.877735	-0.061538	-0.005963	0.000483	-0.002973
18302	11949036	-0.129089	9.884189	-0.050773	-0.000863	-0.001182	-0.005175
18303	11949061	-0.118943	9.882198	-0.068076	-0.002083	-0.001004	-0.002740
18304	11949086	-0.131156	9.861474	-0.056979	-0.002275	-0.000945	-0.003441
18305	11949111	-0.132209	9.872315	-0.052655	-0.002629	-0.001916	-0.002421
18306	11949136	-0.145541	9.838165	-0.064511	-0.005321	0.002496	-0.000207
18307	11949161	-0.135968	9.876183	-0.061184	-0.007972	-0.000320	0.002740
18308	11949186	-0.142510	9.857522	-0.055933	-0.003600	-0.001612	-0.002220
18309	11949211	-0.150283	9.878127	-0.075088	-0.002724	-0.001150	-0.005622
18310	11949236	-0.154548	9.882993	-0.086025	-0.007808	-0.000137	-0.003354
18311	11949261	-0.166644	9.894419	-0.068299	-0.002456	-0.000870	0.001630
18312	11949286	-0.172686	9.866029	-0.047154	-0.004566	0.000830	-0.001691
18313	11949311	-0.147037	9.879886	-0.063081	-0.004545	-0.000076	-0.002590
18314	11949336	-0.158401	9.870122	-0.054414	-0.005266	0.000428	-0.002968
18315	11949361	-0.164997	9.877862	-0.069697	-0.005963	-0.001512	0.000286
18316	11949386	-0.145506	9.874211	-0.063644	-0.000972	-0.003569	-0.002368
18317	11949411	-0.143525	9.872554	-0.077048	-0.002484	-0.004499	-0.002754
18318	11949436	-0.161575	9.859135	-0.051940	-0.007445	-0.001091	0.000040
18319	11949461	-0.114776	9.857035	-0.062775	-0.002933	0.002155	0.001128
18320	11949486	-0.123852	9.842684	-0.031978	-0.011136	0.000267	0.001457
18321	11949511	-0.117718	9.892792	-0.046509	-0.002663	-0.000359	0.001504
18322	11949536	-0.133261	9.873610	-0.044918	-0.006545	0.000662	-0.002529
18323	11949561	-0.147038	9.874280	-0.038222	-0.002542	0.002238	0.003889
18324	11949586	-0.128608	9.855725	-0.051179	-0.005442	-0.001568	0.003171
18325	11949611	-0.128963	9.873559	-0.038211	-0.008999	-0.000539	0.000872
18326	11949636	-0.141418	9.869544	-0.033859	-0.008558	0.001204	-0.005081
18327	11949661	-0.135158	9.874328	-0.031521	-0.003013	-0.003597	0.002959
18328	11949686	-0.128703	9.852336	-0.046399	-0.002728	-0.005020	-0.003783
18329	11949711	-0.102508	9.865154	-0.057534	-0.006793	-0.005600	0.002702
18330	11949736	-0.105920	9.871300	-0.058059	-0.003682	-0.002439	0.003287
18331	11949761	-0.109300	9.863604	-0.053193	-0.006200	-0.000370	-0.004718
18332	11949786	-0.127187	9.878701	-0.032034	-0.004908	-0.004472	0.000393
18333	11949811	-0.156249	9.882748	-0.040996	-0.004435	0.004971	-0.001541
18334	11949836	-0.133890	9.863756	-0.083743	-0.005817	-0.002822	-0.007223
18335	11949861	-0.140458	9.847677	-0.074542	-0.006759	-0.000891	-0.002661
18336	11949886	-0.142023	9.892464	-0.066401	-0.002797	-0.002755	-0.000815
18337	11949911	-0.146066	9.872596	-0.074056	-0.001781	-0.002417	-0.002104
18338	11949936	-0.129744	9.852630	-0.057353	-0.006182	-0.003278	-0.005428
18339	11949961	-0.166271	9.886038	-0.069562	-0.008491	-0.002994	-0.003494
18340	11949986	-0.140243	9.850907	-0.046758	-0.001992	-0.001842	-0.001395
18341	11950011	-0.151421	9.868823	-0.048592	-0.005277	0.002943	-0.001997
18342	11950036	-0.154393	9.881751	-0.058654	-0.004746	0.002174	-0.004822
18343	11950061	-0.180967	9.873693	-0.049416	-0.003462	0.000201	-0.002721
18344	11950086	-0.145240	9.874368	-0.064429	-0.005627	-0.004692	-0.005823
18345	11950111	-0.160078	9.882170	-0.059543	-0.008950	-0.004749	-0.004466
18346	11950136	-0.138575	9.874834	-0.059210	-0.007367	0.004262	-0.001736
18347	11950161	-0.124172	9.864563	-0.057785	-0.007552	-0.000463	-0.006185
18348	11950186	-0.159173	9.899458	-0.072531	-0.004835	-0.002724	0.002718
18349	11950211	-0.157121	9.866409	-0.050515	-0.002582	-0.003608	-0.004221
18350	11950236	-0.169510	9.874969	-0.061898	-0.007543	-0.000525	-0.004131
18351	11950261	-0.107329	9.857793	-0.067478	-0.008234	-0.000921	-0.002591
18352	11950286	-0.136358	9.861888	-0.078834	-0.003821	-0.000711	-0.000997
18353	11950311	-0.146972	9.868283	-0.071626	-0.004417	0.002120	-0.000471
18354	11950336	-0.139305	9.864944	-0.064498	-0.002907	0.000858	0.000100
18355	11950361	-0.155598	9.870947	-0.066804	-0.004812	-0.004090	-0.002870
18356	11950386	-0.132358	9.861985	-0.051590	-0.004475	-0.000933	-0.009654
18357	11950411	-0.139447	9.875776	-0.059184	-0.007609	0.000072	0.001843
18358	11950436	-0.128124	9.868919	-0.036244	-0.005952	0.006360	0.001031
18359	11950461	-0.113204	9.849112	-0.031145	0.001770	0.000279	-0.005698
18360	11950486	-0.135588	9.852137	-0.030859	-0.009836	-0.000624	-0.000922
18361	11950511	-0.122812	9.865874	-0.049647	-0.010583	0.002655	-0.003271
18362	11950536	-0.112331	9.876086	-0.057388	-0.006714	-0.000173	-0.000477
18363	11950561	-0.135018	9.864098	-0.067397	-0.003250	-0.002578	-0.001009
18364	11950586	-0.128231	9.882217	-0.036742	-0.000936	0.001800	0.002283
18365	11950611	-0.121329	9.877588	-0.069771	-0.009452	-0.004557	0.001562
18366	11950636	-0.124964	9.856505	-0.059710	-0.006412	0.002603	0.000823
18367	11950661	-0.133680	9.873566	-0.065427	-0.005825	-0.001709	0.002722
18368	11950686	-0.122478	9.871845	-0.036773	-0.005461	0.000483	-0.003229
18369	11950711	-0.129980	9.870670	-0.058697	-0.007743	-0.002731	-0.008437
18370	11950736	-0.110803	9.849165	-0.033431	-0.008744	-0.001259	-0.005735
18371	11950761	-0.125585	9.865411	-0.052046	-0.007233	-0.002320	-0.001830
18372	11950786	-0.128007	9.876521	-0.067390	-0.007163	-0.002316	0.000030
18373	11950811	-0.128675	9.872810	-0.042455	-0.005628	0.001770	-0.004633
18374	11950836	-0.148005	9.870635	-0.070638	-0.007726	0.000888	-0.006810
18375	11950861	-0.136319	9.851713	-0.065878	-0.009100	0.002362	-0.000134
18376	11950886	-0.146353	9.884209	-0.057770	-0.005433	-0.004624	-0.004795
18377	11950911	-0.142329	9.846705	-0.084092	-0.006039	0.004870	-0.002180
18378	11950936	-0.137156	9.844561	-0.063976	-0.007892	0.000644	-0.000721
18379	11950961	-0.137235	9.880943	-0.054366	-0.008436	0.001532	-0.001745
18380	11950986	-0.125350	9.851755	-0.059192	-0.009455	-0.002614	0.000674
18381	11951011	-0.142913	9.856100	-0.078780	-0.007048	0.004733	0.001220
18382	11951036	-0.167924	9.868057	-0.073912	-0.008595	-0.001380	-0.001691
18383	11951061	-0.144532	9.863903	-0.062479	-0.008620	-0.000463	0.000364
18384	11951086	-0.131873	9.880747	-0.068358	-0.005601	-0.004743	0.001808
18385	11951111	-0.138416	9.876127	-0.081266	-0.005500	-0.002037	-0.000809
18386	11951136	-0.169886	9.869748	-0.061908	-0.004013	0.001620	-0.000528
18387	11951161	-0.139193	9.847771	-0.058228	-0.005102	0.001201	-0.004062
18388	11951186	-0.137997	9.862317	-0.046669	-0.011897	-0.000402	-0.001931
18389	11951211	-0.150375	9.877300	-0.075030	-0.001945	-0.000998	0.001048
18390	11951236	-0.169988	9.881324	-0.074354	-0.007322	-0.001292	-0.002463
18391	11951261	-0.139636	9.840976	-0.048153	-0.005837	-0.001784	-0.002924
18392	11951286	-0.170656	9.854139	-0.065734	-0.005275	0.002946	-0.001548
18393	11951311	-0.154314	9.873038	-0.047118	-0.005287	-0.000867	-0.001827
18394	11951336	-0.155676	9.876521	-0.059146	-0.005732	-0.002743	0.001180
18395	11951361	-0.136815	9.854692	-0.074559	-0.004600	-0.000606	-0.005740
18396	11951386	-0.160012	9.878068	-0.070163	-0.001094	-0.000024	-0.003752
18397	11951411	-0.156359	9.879934	-0.034204	-0.004056	0.003168	0.000048
18398	11951436	-0.151666	9.883821	-0.036539	-0.009282	-0.004235	-0.003181
18399	11951461	-0.134782	9.872734	-0.042953	-0.003305	-0.000569	0.001052
18400	11951486	-0.140870	9.863834	-0.054954	0.000152	0.001225	-0.002666
18401	11951511	-0.138427	9.862786	-0.046778	-0.001869	-0.003770	-0.000511
18402	11951536	-0.137275	9.895881	-0.069297	-0.003065	-0.003985	0.002703
18403	11951561	-0.128215	9.876102	-0.040041	-0.009039	0.004491	-0.003390
18404	11951586	-0.103044	9.852438	-0.055079	-0.003375	-0.007106	-0.004047
18405	11951611	-0.117108	9.868461	-0.058806	-0.009398	-0.002825	-0.007087
18406	11951636	-0.131557	9.881836	-0.046312	-0.003144	-0.001477	0.000346
18407	11951661	-0.113445	9.850377	-0.053139	-0.002126	0.000750	0.001700
18408	11951686	-0.141148	9.860344	-0.075016	-0.004980	0.003724	-0.001872
18409	11951711	-0.148665	9.874444	-0.041379	-0.005753	-0.000162	-0.002149
18410	11951736	-0.130937	9.877224	-0.054424	-0.007755	0.000650	0.001779
18411	11951761	-0.133219	9.879454	-0.077398	-0.009334	-0.000159	0.000875
18412	11951786	-0.150491	9.866826	-0.040467	-0.003587	-0.000066	-0.003172
18413	11951811	-0.141657	9.891790	-0.053450	-0.003491	-0.000966	-0.000739
18414	11951836	-0.147598	9.855204	-0.023230	-0.003794	0.000644	-0.002854
18415	11951861	-0.171524	9.881451	-0.052788	-0.005987	0.001256	-0.001426
18416	11951886	-0.129096	9.866963	-0.032875	-0.006601	-0.003928	-0.002354
18417	11951911	-0.137622	9.877575	-0.052002	-0.004442	-0.003238	0.001171
18418	11951936	-0.155323	9.879750	-0.052880	-0.004388	-0.000721	-0.001895
18419	11951961	-0.125614	9.858547	-0.038170	-0.004630	0.000565	-0.003751
18420	11951986	-0.115546	9.863092	-0.048278	-0.005671	0.001916	0.004473
18421	11952011	-0.113690	9.854746	-0.028176	-0.004786	-0.002404	0.000019
18422	11952036	-0.136105	9.861767	-0.040567	-0.003414	0.000985	0.001764
18423	11952061	-0.156582	9.865692	-0.065387	-0.002058	-0.004309	-0.006278
18424	11952086	-0.138019	9.841390	-0.074045	-0.005148	-0.001249	-0.001378
18425	11952111	-0.145472	9.858062	-0.054272	-0.012732	-0.000024	0.001402
18426	11952136	-0.116672	9.857099	-0.029085	-0.005870	-0.001210	-0.006831
18427	11952161	-0.163029	9.893085	-0.062944	-0.004761	0.000893	0.001256
18428	11952186	-0.154267	9.871475	-0.068704	-0.005387	-0.000170	-0.008622
18429	11952211	-0.167969	9.873671	-0.068654	-0.003701	-0.006649	-0.000064
18430	11952236	-0.146163	9.857861	-0.040929	-0.006363	0.000460	-0.007272
18431	11952261	-0.157760	9.877729	-0.046600	-0.008397	0.000237	-0.002579
18432	11952286	-0.128928	9.869602	-0.050565	-0.009114	0.001210	0.003001
18433	11952311	-0.149001	9.859598	-0.032748	-0.007237	0.002265	-0.001742
18434	11952336	-0.145976	9.894039	-0.049576	-0.006601	-0.001661	0.000094
18435	11952361	-0.139771	9.887950	-0.048676	-0.002760	0.000010	-0.004973
18436	11952386	-0.142113	9.881144	-0.040045	-0.003561	0.003293	-0.004502
18437	11952411	-0.125089	9.856617	-0.035766	-0.006585	-0.004180	0.001618
18438	11952436	-0.121944	9.877269	-0.050210	-0.003640	-0.000320	-0.002602
18439	11952461	-0.150607	9.873848	-0.034710	-0.003059	0.001690	-0.002593
18440	11952486	-0.143631	9.854984	-0.037633	-0.003463	0.000659	0.001642
18441	11952511	-0.144528	9.861608	-0.067772	-0.006492	0.001116	0.000305
18442	11952536	-0.141414	9.868908	-0.045779	-0.003812	0.003295	-0.001551
18443	11952561	-0.172698	9.859962	-0.044650	-0.003603	-0.001283	0.000991
18444	11952586	-0.167844	9.852463	-0.047582	-0.002767	0.005001	0.001277
18445	11952611	-0.162907	9.881658	-0.059554	-0.004852	-0.004669	-0.001010
18446	11952636	-0.141526	9.890534	-0.065008	-0.002515	-0.001131	0.002395
18447	11952661	-0.122443	9.850881	-0.062160	-0.006092	-0.001258	0.004002
18448	11952686	-0.158011	9.877053	-0.064838	-0.006285	0.000739	0.002933
18449	11952711	-0.153595	9.858054	-0.059559	-0.008798	-0.003260	-0.002153
18450	11952736	-0.136909	9.865697	-0.080224	-0.011480	-0.001560	-0.003482
18451	11952761	-0.123160	9.868093	-0.070763	-0.007667	-0.004786	-0.002357
18452	11952786	-0.133756	9.874546	-0.066910	-0.004879	-0.003770	-0.003001
18453	11952811	-0.136530	9.851419	-0.108593	-0.003678	0.000645	-0.003871
18454	11952836	-0.145021	9.865463	-0.072154	-0.001523	-0.004354	-0.000319
18455	11952861	-0.126094	9.860974	-0.041989	-0.008309	-0.000532	-0.002906
18456	11952886	-0.126303	9.883923	-0.054498	-0.004253	-0.002910	0.001428
18457	11952911	-0.112051	9.847659	-0.059808	-0.005078	0.002490	-0.005342
18458	11952936	-0.115677	9.860544	-0.036332	-0.003250	-0.000834	-0.003950
18459	11952961	-0.144130	9.869176	-0.066384	-0.003333	0.002468	0.001450
18460	11952986	-0.137929	9.857152	-0.050129	-0.004321	0.002958	-0.003092
18461	11953011	-0.138224	9.878196	-0.030452	-0.005086	0.001411	0.002608
18462	11953036	-0.136756	9.852700	-0.068206	-0.014490	-0.000896	0.002687
18463	11953061	-0.120122	9.857750	-0.074665	-0.005366	-0.002614	-0.002670
18464	11953086	-0.146309	9.878349	-0.047163	-0.006133	0.001574	-0.000854
18465	11953111	-0.146146	9.882154	-0.078278	-0.011571	-0.002924	-0.004129
18466	11953136	-0.120260	9.895431	-0.056929	-0.004040	-0.003949	-0.002939
18467	11953161	-0.138457	9.897409	-0.045784	-0.004715	-0.002797	-0.003190
18468	11953186	-0.127763	9.876150	-0.042912	-0.010273	-0.001411	-0.004123
18469	11953211	-0.140137	9.880858	-0.050535	-0.007419	0.001740	-0.004378
18470	11953236	-0.145719	9.862553	-0.037117	-0.006449	-0.001027	-0.005928
18471	11953261	-0.152087	9.887745	-0.045701	-0.006081	-0.005846	0.002447
18472	11953286	-0.131345	9.862786	-0.041072	-0.001983	0.000165	-0.000486
18473	11953311	-0.128933	9.862375	-0.042453	-0.006640	-0.002696	-0.000808
18474	11953336	-0.163600	9.886419	-0.030350	-0.003164	-0.000824	0.001566
18475	11953361	-0.146685	9.885265	-0.065413	-0.001830	0.001590	0.002223
18476	11953386	-0.119923	9.863025	-0.047786	-0.004761	-0.003314	-0.000887
18477	11953411	-0.157165	9.877419	-0.056772	0.000618	0.003053	0.000489
18478	11953436	-0.115387	9.856283	-0.067978	-0.003891	-0.002782	-0.001840
18479	11953461	-0.143833	9.882681	-0.079736	-0.008810	0.000870	-0.007775
18480	11953486	-0.129054	9.886080	-0.072693	-0.003149	-0.001408	0.000347
18481	11953511	-0.120176	9.858698	-0.074244	0.002494	-0.004089	-0.002448
18482	11953536	-0.143931	9.891516	-0.068326	-0.003305	-0.002770	-0.000626
18483	11953561	-0.132274	9.868767	-0.060611	-0.007094	0.003950	-0.000003
18484	11953586	-0.123613	9.868723	-0.080838	-0.004999	-0.000222	-0.005028
18485	11953611	-0.151317	9.879257	-0.079774	-0.006099	0.002742	0.000498
18486	11953636	-0.118759	9.859085	-0.067940	-0.004303	0.004710	-0.001606
18487	11953661	-0.138968	9.873462	-0.062599	-0.001094	-0.001696	0.000013
18488	11953686	-0.141041	9.876394	-0.039106	-0.001509	0.001666	0.000292
18489	11953711	-0.127818	9.863340	-0.074147	-0.001448	-0.002544	0.000651
18490	11953736	-0.160591	9.889873	-0.067252	-0.004774	-0.002988	-0.001583
18491	11953761	-0.141542	9.877889	-0.043877	-0.004008	-0.000910	-0.003821
18492	11953786	-0.153187	9.903515	-0.053860	-0.003538	-0.001347	0.001816
18493	11953811	-0.142000	9.877851	-0.042383	-0.007392	0.005497	0.001995
18494	11953836	-0.141725	9.876021	-0.077862	-0.006598	0.006871	0.002708
18495	11953861	-0.116614	9.859602	-0.037348	0.001217	0.000021	-0.002800
18496	11953886	-0.112504	9.882993	-0.044545	0.000060	0.004731	0.002159
18497	11953911	-0.139712	9.881185	-0.040548	-0.000972	-0.001758	-0.002362
18498	11953936	-0.128868	9.858351	-0.058820	-0.000149	0.000580	-0.004466
18499	11953961	-0.154264	9.871632	-0.048089	-0.003910	0.002654	0.000431
18500	11953986	-0.125101	9.871730	-0.063046	-0.011024	-0.001219	0.002798
18501	11954011	-0.135360	9.880840	-0.046307	-0.004138	0.001612	0.000812
18502	11954036	-0.133586	9.858245	-0.055924	-0.001520	-0.004612	-0.001666
18503	11954061	-0.139575	9.875131	-0.047668	-0.005467	0.000812	-0.001177
18504	11954086	-0.115554	9.870976	-0.066997	-0.002806	-0.002372	0.000337
18505	11954111	-0.128494	9.842515	-0.077517	-0.003563	-0.000639	-0.001127
18506	11954136	-0.148338	9.858574	-0.058138	-0.009154	-0.004163	-0.001901
18507	11954161	-0.143361	9.875627	-0.052941	-0.006475	-0.001472	-0.000224
18508	11954186	-0.128458	9.859638	-0.050152	-0.005586	0.002611	-0.002840
18509	11954211	-0.148830	9.858060	-0.056280	-0.004806	0.002444	-0.000849
18510	11954236	-0.132996	9.849358	-0.063514	-0.007075	0.002973	-0.004368
18511	11954261	-0.160573	9.879618	-0.049045	-0.005147	-0.003448	-0.002803
18512	11954286	-0.136332	9.882776	-0.049195	-0.001824	0.001131	-0.002344
18513	11954311	-0.127747	9.878109	-0.046357	-0.000554	-0.005113	-0.003922
18514	11954336	-0.139883	9.862423	-0.054401	-0.006740	-0.001867	-0.005162
18515	11954361	-0.140894	9.861130	-0.033787	-0.004485	0.000313	0.000228
18516	11954386	-0.156881	9.888673	-0.048056	-0.007315	-0.003617	-0.001965
18517	11954411	-0.148123	9.891838	-0.092212	-0.005841	-0.001787	-0.005487
18518	11954436	-0.156914	9.855626	-0.058672	-0.002754	-0.000244	-0.003110
18519	11954461	-0.114432	9.849890	-0.052576	-0.007556	0.000329	0.000359
18520	11954486	-0.169980	9.881631	-0.064320	-0.005791	0.001460	0.002423
18521	11954511	-0.155457	9.892966	-0.048628	-0.003472	-0.003278	0.002584
18522	11954536	-0.157521	9.863109	-0.052450	-0.002009	-0.001132	-0.000872
18523	11954561	-0.156815	9.882410	-0.041928	-0.000891	0.000319	0.002143
18524	11954586	-0.118155	9.849715	-0.074585	-0.007920	-0.000660	-0.003877
18525	11954611	-0.119925	9.865511	-0.054983	-0.006378	-0.000826	-0.003174
18526	11954636	-0.118876	9.869109	-0.071800	-0.002168	0.001837	-0.002915
18527	11954661	-0.121803	9.868743	-0.050584	-0.009733	-0.001840	0.001189
18528	11954686	-0.140909	9.869033	-0.053446	-0.006031	-0.004116	-0.004473
18529	11954711	-0.146829	9.883599	-0.048632	-0.004055	-0.001298	-0.002345
18530	11954736	-0.140008	9.879273	-0.071677	-0.006104	-0.005603	-0.003199
18531	11954761	-0.148856	9.890620	-0.044292	-0.003375	-0.000773	-0.005746
18532	11954786	-0.139997	9.874689	-0.051038	-0.005804	-0.002487	0.000340
18533	11954811	-0.145467	9.892761	-0.058228	-0.006446	-0.002636	-0.002219
18534	11954836	-0.139369	9.863413	-0.056824	-0.002047	-0.002035	-0.001974
18535	11954861	-0.141626	9.859424	-0.077426	-0.003210	0.002006	-0.005792
18536	11954886	-0.146932	9.895037	-0.052992	-0.001952	-0.005201	-0.002179
18537	11954911	-0.160587	9.872227	-0.030811	-0.005297	0.001721	-0.001939
18538	11954936	-0.147359	9.891267	-0.055349	-0.005950	-0.003915	0.000788
18539	11954961	-0.126220	9.875685	-0.042529	-0.003096	0.001055	0.001377
18540	11954986	-0.153265	9.902387	-0.042375	-0.003791	0.000711	-0.002082
18541	11955011	-0.147100	9.868007	-0.053460	-0.000605	-0.005375	-0.002956
18542	11955036	-0.161107	9.883809	-0.044210	-0.005475	-0.000991	0.000162
18543	11955061	-0.158795	9.908205	-0.085525	-0.001292	0.000365	-0.000805
18544	11955086	-0.163742	9.873093	-0.058628	-0.002852	-0.000754	-0.000097
18545	11955111	-0.152543	9.885984	-0.054800	-0.006059	0.001445	-0.002523
18546	11955136	-0.131353	9.870596	-0.055867	-0.006038	-0.001007	0.001380
18547	11955161	-0.142801	9.870799	-0.047138	-0.006923	0.002798	0.001916
18548	11955186	-0.133707	9.868635	-0.053496	-0.005056	0.000370	0.002345
18549	11955211	-0.134631	9.859584	-0.051547	-0.004487	-0.004019	-0.003193
18550	11955236	-0.148639	9.870092	-0.036200	-0.002749	-0.004378	-0.002749
18551	11955261	-0.135081	9.865440	-0.061642	-0.005151	0.001010	-0.001435
18552	11955286	-0.126864	9.849744	-0.052544	-0.005428	-0.002618	-0.003441
18553	11955311	-0.150596	9.882021	-0.042856	-0.004806	-0.001755	0.000796
18554	11955336	-0.148479	9.865122	-0.052466	-0.003529	-0.001743	-0.002094
18555	11955361	-0.122326	9.855568	-0.027640	-0.005057	0.002041	-0.001431
18556	11955386	-0.115675	9.897982	-0.033418	-0.005361	-0.002682	-0.004083
18557	11955411	-0.129049	9.868902	-0.035763	-0.006998	-0.001410	-0.000674
18558	11955436	-0.126607	9.873663	-0.065567	-0.000361	-0.002983	-0.003132
18559	11955461	-0.119904	9.867401	-0.053982	-0.006577	-0.000435	-0.000355
18560	11955486	-0.128349	9.858948	-0.066398	-0.008065	0.001925	-0.003731
18561	11955511	-0.099579	9.875218	-0.052251	-0.003110	0.005105	-0.005718
18562	11955536	-0.125517	9.862616	-0.055894	-0.005390	-0.003578	0.001168
18563	11955561	-0.124634	9.862153	-0.055426	-0.005046	-0.002678	-0.004597
18564	11955586	-0.141577	9.884567	-0.046608	-0.013584	-0.001658	-0.001362
18565	11955611	-0.120915	9.856642	-0.095772	-0.000498	-0.002590	-0.000502
18566	11955636	-0.144359	9.912104	-0.049567	-0.006288	0.002471	-0.004183
18567	11955661	-0.097717	9.878504	-0.048404	-0.003877	-0.003107	-0.002679
18568	11955686	-0.115594	9.870975	-0.067021	-0.003034	-0.003614	-0.004415
18569	11955711	-0.143652	9.875649	-0.085067	-0.005342	0.000812	-0.002842
18570	11955736	-0.111843	9.875732	-0.065135	-0.002949	0.000210	-0.000294
18571	11955761	-0.153842	9.875384	-0.045690	-0.007056	-0.003283	0.002337
18572	11955786	-0.142230	9.863753	-0.051525	-0.003682	-0.004706	0.002635
18573	11955811	-0.156929	9.891674	-0.058649	-0.003912	-0.002143	-0.006324
18574	11955836	-0.155499	9.888530	-0.037507	-0.007841	0.001290	-0.000845
18575	11955861	-0.166269	9.882105	-0.060491	-0.006300	-0.003275	-0.002477
18576	11955886	-0.150510	9.878021	-0.059094	-0.008632	0.001785	-0.003469
18577	11955911	-0.145640	9.857319	-0.035689	-0.003688	-0.003035	-0.003447
18578	11955936	-0.165147	9.899666	-0.029390	-0.002928	0.000094	0.005035
18579	11955961	-0.165231	9.867657	-0.045131	-0.009446	-0.002947	-0.002211
18580	11955986	-0.136779	9.845722	-0.046292	-0.002235	-0.004357	0.000583
18581	11956011	-0.135081	9.854486	-0.028512	-0.005196	-0.001374	0.002468
18582	11956036	-0.156114	9.886784	-0.016904	-0.008203	0.000174	-0.001810
18583	11956061	-0.143211	9.865602	-0.048598	-0.006859	-0.003342	0.002463
18584	11956086	-0.146041	9.864217	-0.053504	-0.001049	-0.003178	-0.000376
18585	11956111	-0.142776	9.865777	-0.059278	0.000304	0.000189	-0.006007
18586	11956136	-0.147751	9.848481	-0.050039	-0.005494	-0.002219	0.001822
18587	11956161	-0.129668	9.853214	-0.065490	-0.005677	-0.003076	-0.004016
18588	11956186	-0.118379	9.855591	-0.055996	0.000115	0.002131	-0.005992
18589	11956211	-0.136636	9.875907	-0.065892	-0.007972	-0.000982	-0.001627
18590	11956236	-0.142110	9.882114	-0.041503	-0.001197	-0.000671	-0.003636
18591	11956261	-0.156700	9.891087	-0.081671	-0.002329	-0.003332	-0.001653
18592	11956286	-0.120809	9.862989	-0.045936	-0.002217	-0.002481	0.002323
18593	11956311	-0.145608	9.862757	-0.050539	-0.005837	0.002484	-0.001937
18594	11956336	-0.142549	9.894948	-0.074537	-0.003572	0.001487	-0.002587
18595	11956361	-0.130913	9.872520	-0.055880	-0.007467	0.001355	-0.003289
18596	11956386	-0.131137	9.867782	-0.088060	-0.002371	-0.001791	-0.000750
18597	11956411	-0.132840	9.874975	-0.063055	-0.005309	-0.002293	-0.004277
18598	11956436	-0.125668	9.880054	-0.079393	-0.006962	-0.002839	-0.003500
18599	11956461	-0.160613	9.880990	-0.044229	-0.006607	-0.003603	-0.001775
18600	11956486	-0.143169	9.851252	-0.040457	-0.005725	0.002673	-0.004563
18601	11956511	-0.141999	9.888667	-0.066424	-0.000672	-0.001112	-0.001785
18602	11956536	-0.161802	9.885480	-0.091703	-0.004110	0.002649	0.000243
18603	11956561	-0.147067	9.868910	-0.050991	-0.007014	-0.000569	0.001256
18604	11956586	-0.135566	9.845793	-0.019347	-0.010477	0.003698	-0.000060
18605	11956611	-0.148445	9.893410	-0.040503	-0.002387	0.002472	-0.004320
18606	11956636	-0.142879	9.879677	-0.068303	-0.003806	0.000834	-0.004391
18607	11956661	-0.150491	9.877419	-0.051964	-0.004555	0.000709	0.001898
18608	11956686	-0.158869	9.889918	-0.038001	-0.006182	0.003447	-0.001416
18609	11956711	-0.165364	9.888794	-0.062389	-0.007643	-0.003164	-0.000101
18610	11956736	-0.150342	9.896402	-0.051448	-0.008759	-0.002873	-0.006315
18611	11956761	-0.138397	9.873183	-0.075483	-0.006796	0.002727	0.001147
18612	11956786	-0.159199	9.876185	-0.039409	-0.007953	-0.003760	-0.004144
18613	11956811	-0.157887	9.853988	-0.045245	-0.001983	-0.000294	-0.002664
18614	11956836	-0.155181	9.863102	-0.050483	-0.005953	0.003962	-0.002953
18615	11956861	-0.130301	9.857933	-0.063543	-0.006552	-0.001740	-0.007924
18616	11956886	-0.144552	9.852242	-0.044267	-0.009258	0.001195	-0.002639
18617	11956911	-0.137912	9.867777	-0.063043	-0.007015	-0.000696	0.001764
18618	11956936	-0.136191	9.871780	-0.043433	-0.002186	-0.001711	-0.000238
18619	11956961	-0.121572	9.911196	-0.033465	-0.002982	-0.003031	-0.004667
18620	11956986	-0.156507	9.890246	-0.026553	-0.001004	-0.000395	0.000854
18621	11957011	-0.151643	9.882267	-0.028510	-0.001609	-0.001311	0.002526
18622	11957036	-0.157916	9.894712	-0.040865	-0.008363	-0.004470	0.001498
18623	11957061	-0.144483	9.857149	-0.055270	-0.010197	-0.001203	0.001647
18624	11957086	-0.127305	9.884812	-0.051090	-0.008348	0.000821	-0.001040
18625	11957111	-0.135785	9.880919	-0.051596	-0.003967	-0.004005	0.000525
18626	11957136	-0.135583	9.862309	-0.043853	-0.004289	0.002392	0.001906
18627	11957161	-0.116771	9.845050	-0.048263	-0.007196	-0.000830	0.002219
18628	11957186	-0.162184	9.904671	-0.074354	-0.010985	0.001295	-0.002636
18629	11957211	-0.155379	9.890901	-0.068253	-0.004095	-0.000007	-0.002472
18630	11957236	-0.136372	9.886562	-0.048727	-0.001438	-0.000992	-0.001071
18631	11957261	-0.128314	9.857853	-0.057347	-0.006472	-0.001658	0.000603
18632	11957286	-0.137963	9.871099	-0.062573	-0.004889	0.003284	0.003770
18633	11957311	-0.132360	9.875530	-0.068336	-0.004646	0.000882	-0.004900
18634	11957336	-0.132215	9.868939	-0.071246	-0.004326	-0.001110	-0.002150
18635	11957361	-0.126417	9.859755	-0.055544	0.003780	0.000663	0.004756
18636	11957386	-0.154428	9.866437	-0.081645	-0.005127	-0.001368	0.004904
18637	11957411	-0.147580	9.886010	-0.083135	-0.005333	-0.003512	-0.000881
18638	11957436	-0.143476	9.892286	-0.056829	-0.002347	-0.000158	0.002596
18639	11957461	-0.145469	9.903990	-0.077955	0.002345	-0.001317	-0.003771
18640	11957486	-0.130452	9.871883	-0.045762	-0.010508	0.002860	0.001861
18641	11957511	-0.150449	9.887745	-0.075000	-0.002216	0.001784	0.002861
18642	11957536	-0.136766	9.882456	-0.059239	-0.001952	-0.003003	-0.001784
18643	11957561	-0.136597	9.874877	-0.060609	-0.009020	-0.003834	0.003104
18644	11957586	-0.145254	9.874089	-0.046604	-0.011824	-0.002722	-0.000857
18645	11957611	-0.142622	9.847045	-0.044320	-0.007506	-0.006083	-0.006017
18646	11957636	-0.150228	9.869862	-0.084597	-0.002348	-0.004821	-0.000957
18647	11957661	-0.133028	9.860909	-0.074621	-0.000656	0.000697	-0.000097
18648	11957686	-0.150343	9.892075	-0.047617	-0.006478	-0.006261	-0.007302
18649	11957711	-0.157381	9.895621	-0.067819	-0.001453	0.003390	-0.004640
18650	11957736	-0.140165	9.885973	-0.043876	-0.003505	-0.004575	-0.000185
18651	11957761	-0.178085	9.905375	-0.040759	-0.006652	-0.001857	0.000802
18652	11957786	-0.169353	9.885377	-0.029296	-0.006764	0.001365	-0.001614
18653	11957811	-0.156354	9.889145	-0.047592	-0.006099	-0.001322	0.002211
18654	11957836	-0.140628	9.861280	-0.074050	-0.006665	0.002410	0.000827
18655	11957861	-0.131143	9.861851	-0.072280	0.003059	-0.001360	0.001417
18656	11957886	-0.139603	9.876631	-0.053444	-0.004937	-0.001639	-0.002281
18657	11957911	-0.148653	9.878386	-0.050994	-0.006703	0.001237	-0.004053
18658	11957936	-0.134474	9.854856	-0.052882	-0.011648	0.004654	0.003605
18659	11957961	-0.107769	9.876400	-0.043003	-0.008745	-0.001131	-0.005221
18660	11957986	-0.107530	9.863525	-0.038760	-0.007273	-0.002898	-0.000359
18661	11958011	-0.108693	9.854841	-0.062233	-0.004597	-0.002143	0.002265
18662	11958036	-0.120320	9.870364	-0.062650	-0.006437	-0.006823	0.002117
18663	11958061	-0.119887	9.857843	-0.049725	-0.004011	0.000890	-0.004768
18664	11958086	-0.136415	9.883946	-0.032423	-0.002463	-0.001003	0.000344
18665	11958111	-0.151999	9.875016	-0.050549	-0.001071	0.001207	-0.005615
18666	11958136	-0.138791	9.876762	-0.029884	-0.009178	-0.003523	-0.003435
18667	11958161	-0.123768	9.866291	-0.046803	-0.006914	-0.004384	-0.002615
18668	11958186	-0.147583	9.868725	-0.039532	-0.001577	-0.000404	0.003810
18669	11958211	-0.131372	9.866206	-0.047305	-0.001816	-0.001325	-0.002804
18670	11958236	-0.157247	9.883560	-0.055745	-0.006382	-0.000437	0.000098
18671	11958261	-0.136917	9.863562	-0.064987	-0.004090	-0.000262	-0.000925
18672	11958286	-0.177560	9.874611	-0.075819	-0.000876	-0.000726	-0.003506
18673	11958311	-0.165522	9.888016	-0.042815	-0.002639	0.002407	-0.004570
18674	11958336	-0.151848	9.906793	-0.050052	-0.004232	-0.001749	-0.001387
18675	11958361	-0.144153	9.868246	-0.067366	-0.004031	-0.002010	-0.001390
18676	11958386	-0.167641	9.875433	-0.060007	-0.004537	0.003797	-0.002573
18677	11958411	-0.156242	9.882738	-0.062438	-0.008878	0.003660	-0.000511
18678	11958436	-0.165700	9.884645	-0.071530	-0.006305	-0.002883	0.001501
18679	11958461	-0.148250	9.890874	-0.061089	-0.005716	-0.003457	-0.000043
18680	11958486	-0.163742	9.871314	-0.066310	-0.004591	-0.000864	-0.006124
18681	11958511	-0.153006	9.854960	-0.073958	-0.007689	-0.002141	-0.004840
18682	11958536	-0.146371	9.882180	-0.049140	-0.001560	-0.003587	-0.004801
18683	11958561	-0.140453	9.880616	-0.065836	-0.010680	-0.004511	-0.000229
18684	11958586	-0.131127	9.850688	-0.056341	-0.009306	-0.003332	-0.001770
18685	11958611	-0.151592	9.882098	-0.048618	-0.003368	-0.004905	-0.001405
18686	11958636	-0.141970	9.875668	-0.053879	-0.009769	-0.003214	-0.005673
18687	11958661	-0.145626	9.867555	-0.053376	-0.008416	-0.003183	-0.002408
18688	11958686	-0.143340	9.886262	-0.065847	-0.009082	-0.001763	0.004019
18689	11958711	-0.146706	9.876049	-0.052010	-0.003619	-0.002778	-0.000495
18690	11958736	-0.141924	9.874737	-0.055364	-0.006172	0.000796	-0.002649
18691	11958761	-0.119962	9.865787	-0.041512	-0.008808	0.001462	0.000630
18692	11958786	-0.144424	9.877306	-0.038629	-0.000845	0.004767	-0.001556
18693	11958811	-0.127023	9.854226	-0.036198	-0.007717	-0.000978	-0.002398
18694	11958836	-0.132755	9.868635	-0.053016	-0.006109	-0.000881	0.001313
18695	11958861	-0.142201	9.878696	-0.004069	-0.002907	-0.004822	0.003786
18696	11958886	-0.143414	9.888161	-0.065462	-0.003867	-0.005235	0.000070
18697	11958911	-0.129450	9.874907	-0.056804	-0.005352	0.005925	0.004046
18698	11958936	-0.136140	9.874870	-0.059695	-0.007020	0.003825	0.001535
18699	11958961	-0.115648	9.870279	-0.052666	-0.000466	-0.003552	-0.001542
18700	11958986	-0.135539	9.858572	-0.048226	-0.002874	-0.002179	-0.000624
18701	11959011	-0.147693	9.872508	-0.038114	-0.001556	-0.001445	-0.001134
18702	11959036	-0.161255	9.909405	-0.073491	-0.003323	0.008543	0.002067
18703	11959061	-0.167219	9.880590	-0.054678	-0.009547	0.000283	-0.002834
18704	11959086	-0.156357	9.861059	-0.072056	-0.004154	0.002135	0.000367
18705	11959111	-0.170678	9.850698	-0.057633	-0.004050	-0.001752	-0.003624
18706	11959136	-0.172022	9.887691	-0.058560	-0.005326	-0.003576	0.000854
18707	11959161	-0.167660	9.873117	-0.063374	-0.004008	0.000627	-0.009577
18708	11959186	-0.148919	9.868688	-0.068257	-0.006318	-0.002825	-0.003695
18709	11959211	-0.168632	9.856778	-0.081614	-0.003071	0.004415	-0.000201
18710	11959236	-0.163174	9.894376	-0.053368	-0.001012	-0.002798	-0.004804
18711	11959261	-0.141109	9.893931	-0.068799	-0.004698	0.000887	-0.001247
18712	11959286	-0.147205	9.883663	-0.054374	-0.005941	0.002363	0.004350
18713	11959311	-0.165959	9.855554	-0.060988	-0.002097	-0.002949	-0.005630
18714	11959336	-0.145416	9.854947	-0.066859	-0.004297	-0.002016	-0.003056
18715	11959361	-0.142757	9.845135	-0.074926	-0.010084	0.001258	0.003453
18716	11959386	-0.139297	9.861448	-0.053434	-0.006112	0.001717	0.004795
18717	11959411	-0.149550	9.872121	-0.045224	-0.007105	-0.004321	-0.003186
18718	11959436	-0.132654	9.866384	-0.060657	-0.007099	-0.001925	0.002275
18719	11959461	-0.107461	9.868582	-0.059305	-0.008515	0.000244	0.001706
18720	11959486	-0.139610	9.880938	-0.055799	-0.007667	0.003612	-0.001156
18721	11959511	-0.121034	9.869491	-0.036788	-0.004591	-0.000730	-0.003888
18722	11959536	-0.148674	9.882747	-0.057230	-0.005144	-0.001253	-0.002475
18723	11959561	-0.090128	9.851748	-0.061422	-0.001211	-0.001954	0.000271
18724	11959586	-0.126988	9.863485	-0.052579	-0.005777	0.002946	0.002165
18725	11959611	-0.124164	9.858143	-0.042023	-0.004293	0.000118	-0.000800
18726	11959636	-0.114765	9.865248	-0.033418	-0.007115	0.000395	-0.001302
18727	11959661	-0.130072	9.883576	-0.065498	-0.004786	-0.006936	-0.004876
18728	11959686	-0.152342	9.872723	-0.055830	-0.002466	-0.000946	-0.001644
18729	11959711	-0.117569	9.865896	-0.046875	-0.002530	-0.003275	-0.003071
18730	11959736	-0.149489	9.834353	-0.057701	-0.003679	-0.003491	-0.004351
18731	11959761	-0.153542	9.855027	-0.048643	-0.001019	0.002520	0.003111
18732	11959786	-0.128588	9.872312	-0.041034	-0.005937	-0.000353	0.000869
18733	11959811	-0.124374	9.870804	-0.031438	-0.008115	0.001800	-0.001101
18734	11959836	-0.128330	9.857080	-0.037655	-0.008364	0.000194	0.006974
18735	11959861	-0.136930	9.880506	-0.025629	-0.006384	0.003703	-0.002690
18736	11959886	-0.130418	9.873509	-0.059279	-0.000410	0.001098	0.001071
18737	11959911	-0.153846	9.879923	-0.062480	-0.005162	-0.002740	-0.003363
18738	11959936	-0.138965	9.863811	-0.051503	-0.005873	0.001511	-0.003274
18739	11959961	-0.159274	9.897982	-0.069204	-0.001770	-0.003010	-0.004268
18740	11959986	-0.156764	9.881173	-0.054351	-0.004840	-0.004998	-0.003500
18741	11960011	-0.156055	9.871901	-0.067302	-0.003226	-0.003216	-0.000869
18742	11960036	-0.162994	9.893632	-0.067742	-0.002590	-0.000621	0.001264
18743	11960061	-0.147344	9.860142	-0.066815	-0.005570	-0.004163	-0.001253
18744	11960086	-0.152979	9.888422	-0.059633	-0.004362	-0.003497	0.000609
18745	11960111	-0.140740	9.872253	-0.078443	-0.000070	-0.001281	0.002849
18746	11960136	-0.162433	9.878373	-0.061466	-0.005873	-0.004759	-0.003757
18747	11960161	-0.141107	9.862323	-0.080701	-0.007170	0.000073	-0.001164
18748	11960186	-0.153977	9.851372	-0.057161	-0.007829	0.004905	-0.001968
18749	11960211	-0.144484	9.859270	-0.069809	0.000541	-0.002967	-0.002028
18750	11960236	-0.140666	9.851492	-0.054917	-0.002085	0.001323	0.000042
