// General information: 
//  MT Manager version: 2022.0.0 
//  XDA version: 2022.0.0 build 7085 rev 119802 built on 2022-11-08
// Device information: 
//  DeviceId: 037004D1
//  ProductCode: MTi-300-2A5G4
//  Firmware Version: 1.4.1
//  Hardware Version: 2.1.0
// Device settings: 
//  Filter Profile: general(39.16)
//  Option Flags: Orientation Smoother Disabled, Position/Velocity Smoother Disabled, Continuous Zero Rotation Update Disabled, AHS Disabled, ICC Disabled
// Coordinate system: ENU
PacketCounter	SampleTimeFine	Acc_X	Acc_Y	Acc_Z	Gyr_X	Gyr_Y	Gyr_Z
36365	14039011	-0.136406	9.860034	-0.015324	-0.004369	-0.000711	0.002372
36366	14039036	-0.159613	9.862619	-0.048313	-0.004187	-0.002521	0.000824
36367	14039061	-0.142133	9.870945	-0.050274	-0.005738	0.006041	-0.002906
36368	14039086	-0.144968	9.871329	-0.046891	-0.007893	-0.004788	-0.000139
36369	14039111	-0.128564	9.857901	-0.055174	-0.006312	-0.004311	-0.000334
36370	14039136	-0.148485	9.853416	-0.057450	-0.005153	-0.002344	0.000827
36371	14039161	-0.134316	9.890429	-0.045532	-0.005335	0.003330	-0.003757
36372	14039186	-0.162377	9.877322	-0.018568	-0.005056	0.002760	-0.002024
36373	14039211	-0.156707	9.895867	-0.047408	-0.002435	-0.003271	-0.000720
36374	14039236	-0.161275	9.882116	-0.052185	-0.000419	-0.002199	-0.000337
36375	14039261	-0.153218	9.874201	-0.024282	-0.009201	-0.002025	-0.000632
36376	14039286	-0.159033	9.889128	-0.042992	-0.010097	-0.004178	-0.001025
36377	14039311	-0.150691	9.864966	-0.038346	-0.001556	-0.003068	-0.004053
36378	14039336	-0.132901	9.860211	-0.054645	-0.005350	-0.000218	-0.001730
36379	14039361	-0.126370	9.867805	-0.048929	-0.005107	0.000174	-0.001791
36380	14039386	-0.137754	9.856610	-0.039799	-0.003834	-0.000004	-0.005381
36381	14039411	-0.120726	9.869234	-0.045147	-0.003706	-0.004141	-0.006369
36382	14039436	-0.125496	9.870224	-0.051859	-0.002331	0.003119	-0.006722
36383	14039461	-0.144848	9.856129	-0.045447	-0.007571	0.001030	-0.002286
36384	14039486	-0.115275	9.883700	-0.024990	-0.008568	0.002305	-0.003114
36385	14039511	-0.105692	9.850777	-0.036582	-0.004946	-0.002727	0.001915
36386	14039536	-0.127360	9.871447	-0.040349	-0.002496	-0.003396	0.000373
36387	14039561	-0.137199	9.888148	-0.023893	-0.009020	-0.001374	0.002126
36388	14039586	-0.125219	9.894522	-0.058024	-0.008751	0.004046	-0.001308
36389	14039611	-0.116250	9.853453	-0.033220	-0.000621	0.000121	0.000121
36390	14039636	-0.122945	9.855853	-0.040767	-0.007132	0.001426	-0.002609
36391	14039661	-0.116879	9.869801	-0.048054	-0.003813	-0.002523	-0.003603
36392	14039686	-0.121879	9.891023	-0.044129	-0.008295	-0.000070	0.001232
36393	14039711	-0.134957	9.880683	-0.060859	-0.009312	0.000040	0.003615
36394	14039736	-0.115076	9.853572	-0.071044	-0.003852	0.000906	-0.001852
36395	14039761	-0.121428	9.852187	-0.047536	-0.004734	-0.003833	-0.004376
36396	14039786	-0.119555	9.881104	-0.013948	-0.007948	-0.000776	0.000718
36397	14039811	-0.134602	9.876055	-0.037388	-0.005603	-0.002484	-0.001544
36398	14039836	-0.122103	9.863859	-0.035997	-0.006406	-0.005473	-0.001562
36399	14039861	-0.116844	9.861608	-0.039385	-0.008763	0.000036	-0.002226
36400	14039886	-0.138749	9.866518	-0.037353	-0.004593	-0.003821	0.001912
36401	14039911	-0.102504	9.865518	-0.035673	-0.003870	-0.001989	0.005001
36402	14039936	-0.153164	9.907585	-0.035412	-0.005676	-0.003912	-0.000390
36403	14039961	-0.120423	9.884717	-0.034117	-0.006036	-0.002421	0.002757
36404	14039986	-0.152844	9.882784	-0.026793	-0.001420	-0.000921	0.000510
36405	14040011	-0.165681	9.885634	-0.037760	-0.004789	-0.001234	0.003469
36406	14040036	-0.152484	9.891014	-0.036847	-0.001465	0.000429	-0.003520
36407	14040061	-0.154232	9.885942	-0.047744	-0.013502	0.002412	-0.003093
36408	14040086	-0.131944	9.857946	-0.060399	-0.007680	-0.000009	-0.004978
36409	14040111	-0.149419	9.880667	-0.040159	-0.007354	0.000262	-0.002988
36410	14040136	-0.123513	9.862870	-0.034609	-0.003736	-0.002711	-0.000262
36411	14040161	-0.164031	9.898858	-0.031541	-0.001067	0.001989	-0.002868
36412	14040186	-0.143646	9.866142	-0.016258	-0.005163	0.000049	-0.000694
36413	14040211	-0.136669	9.881515	-0.023498	-0.003515	-0.001349	0.000900
36414	14040236	-0.127538	9.879989	-0.040318	-0.006881	-0.004452	-0.001034
36415	14040261	-0.122111	9.834558	-0.043719	-0.002886	-0.005469	0.000554
36416	14040286	-0.135569	9.865819	-0.020141	-0.006719	-0.001734	-0.002815
36417	14040311	-0.140847	9.881294	-0.043187	0.002092	-0.002801	-0.001243
36418	14040336	-0.148737	9.890204	-0.011946	-0.003301	-0.002313	-0.000711
36419	14040361	-0.131824	9.873891	-0.018254	-0.004682	-0.000785	0.002059
36420	14040386	-0.129603	9.886418	-0.027826	-0.007197	0.003624	-0.002591
36421	14040411	-0.125012	9.854494	-0.015363	-0.006881	-0.002578	-0.003271
36422	14040436	-0.109812	9.874587	-0.045255	-0.001338	0.000298	-0.003462
36423	14040461	-0.133744	9.875303	-0.018659	-0.008750	-0.003959	0.001350
36424	14040486	-0.138673	9.853024	-0.023937	-0.007725	-0.001942	0.000845
36425	14040511	-0.116418	9.869170	-0.038419	-0.007568	-0.000776	0.000332
36426	14040536	-0.121374	9.876577	-0.029312	-0.007087	0.001943	-0.003433
36427	14040561	-0.127866	9.866613	-0.034543	-0.006886	-0.002380	-0.002241
36428	14040586	-0.136832	9.857986	-0.036020	0.000300	-0.001031	-0.003025
36429	14040611	-0.128723	9.861506	-0.042147	-0.011373	0.001869	-0.003168
36430	14040636	-0.131275	9.867446	-0.029797	-0.001670	0.000617	-0.003715
36431	14040661	-0.133478	9.873064	-0.057474	-0.006621	-0.000624	-0.000946
36432	14040686	-0.139851	9.877902	-0.038354	-0.004931	0.003023	0.001183
36433	14040711	-0.159425	9.883112	-0.054002	-0.008398	-0.003123	-0.002173
36434	14040736	-0.154164	9.874349	-0.034426	-0.007206	-0.006650	-0.003478
36435	14040761	-0.119664	9.851808	-0.021621	-0.005955	-0.001456	-0.001536
36436	14040786	-0.119244	9.860409	-0.025983	-0.004081	0.002259	0.000532
36437	14040811	-0.134648	9.879954	-0.044085	-0.008112	-0.001888	-0.000505
36438	14040836	-0.126524	9.842793	-0.058116	-0.002329	-0.003281	-0.006807
36439	14040861	-0.137894	9.868429	-0.037370	-0.003937	-0.000519	-0.003335
36440	14040886	-0.139829	9.874654	-0.043165	-0.003119	-0.004251	-0.002003
36441	14040911	-0.145789	9.892935	-0.033477	-0.005880	-0.001711	-0.001022
36442	14040936	-0.145762	9.909730	-0.076667	-0.002499	-0.001526	-0.002120
36443	14040961	-0.129804	9.875822	-0.049421	-0.002788	-0.000241	-0.000834
36444	14040986	-0.139258	9.895846	-0.032068	-0.007167	-0.001876	-0.007114
36445	14041011	-0.112281	9.878318	-0.042768	-0.003791	0.000638	-0.005698
36446	14041036	-0.122033	9.872725	-0.056610	-0.007112	0.001177	0.000790
36447	14041061	-0.115730	9.886241	-0.036535	-0.004414	-0.003763	-0.001743
36448	14041086	-0.124832	9.886108	-0.035025	-0.007167	-0.001876	-0.006342
36449	14041111	-0.134945	9.853876	-0.013898	-0.005545	-0.006358	-0.000982
36450	14041136	-0.125682	9.850528	-0.036506	-0.003698	-0.001605	0.002435
36451	14041161	-0.145535	9.876956	-0.043045	-0.007544	0.000586	-0.000173
36452	14041186	-0.126517	9.866470	-0.024469	-0.006936	-0.000636	-0.001210
36453	14041211	-0.120783	9.862632	-0.016401	-0.001965	-0.004232	-0.001433
36454	14041236	-0.146921	9.862876	-0.022962	-0.004773	0.001858	-0.001514
36455	14041261	-0.121172	9.863270	-0.027851	-0.004154	-0.003427	0.001143
36456	14041286	-0.139315	9.863454	-0.024008	-0.001472	-0.001182	0.000447
36457	14041311	-0.142722	9.909062	-0.030153	-0.006492	-0.002763	-0.003780
36458	14041336	-0.139139	9.855597	-0.036946	-0.000037	-0.004585	-0.003299
36459	14041361	-0.152469	9.888369	-0.019564	-0.005908	-0.002807	0.001219
36460	14041386	-0.156600	9.873575	-0.017182	-0.002731	0.000221	0.001165
36461	14041411	-0.128096	9.876222	-0.012075	-0.003642	-0.001344	0.001477
36462	14041436	-0.151572	9.883470	-0.008534	-0.005573	-0.001322	-0.001591
36463	14041461	-0.125578	9.870402	-0.031709	-0.002484	0.001954	-0.004734
36464	14041486	-0.128098	9.885080	-0.032559	-0.012186	-0.000729	-0.001772
36465	14041511	-0.147072	9.881515	-0.032083	-0.007224	-0.005738	0.000824
36466	14041536	-0.124800	9.844629	-0.021623	-0.006624	0.001568	-0.002415
36467	14041561	-0.130057	9.875677	-0.008662	-0.004263	-0.002207	-0.002892
36468	14041586	-0.133707	9.860353	-0.002417	-0.005415	-0.002418	-0.002246
36469	14041611	-0.126477	9.880567	-0.047020	-0.004709	0.002189	0.001372
36470	14041636	-0.119901	9.913164	-0.031318	-0.000416	-0.000201	-0.001928
36471	14041661	-0.141262	9.885319	-0.058854	-0.010562	-0.001602	-0.001392
36472	14041686	-0.120560	9.887992	-0.030299	-0.005677	-0.002298	-0.004488
36473	14041711	-0.121406	9.850704	-0.043649	-0.006735	-0.003217	-0.002311
36474	14041736	-0.135600	9.869318	-0.031631	-0.006823	0.001490	-0.006007
36475	14041761	-0.147571	9.886247	-0.032107	-0.003682	-0.000116	0.001870
36476	14041786	-0.112669	9.873150	-0.046636	-0.004281	-0.001822	-0.003533
36477	14041811	-0.126919	9.864734	-0.035490	-0.006473	0.000598	-0.003250
36478	14041836	-0.119244	9.870804	-0.052768	-0.007471	-0.000262	-0.003318
36479	14041861	-0.121662	9.880840	-0.060520	-0.003898	-0.003943	-0.001550
36480	14041886	-0.131675	9.874986	-0.057564	-0.003898	-0.004147	-0.006361
36481	14041911	-0.136522	9.840048	-0.042201	-0.002091	-0.004041	0.000365
36482	14041936	-0.147094	9.875725	-0.025406	-0.000319	-0.003622	-0.002456
36483	14041961	-0.148243	9.860776	-0.041638	-0.004847	-0.004348	-0.003858
36484	14041986	-0.134240	9.881751	-0.036909	-0.006442	-0.000437	-0.004025
36485	14042011	-0.144217	9.874683	-0.017672	-0.008261	0.000833	0.001305
36486	14042036	-0.138372	9.869212	-0.027736	-0.008355	-0.002205	0.001931
36487	14042061	-0.148039	9.882540	-0.037806	-0.007720	-0.004143	-0.000645
36488	14042086	-0.132706	9.864001	-0.022975	-0.006910	0.002396	-0.004202
36489	14042111	-0.137082	9.872000	-0.022039	-0.006177	0.001113	-0.005682
36490	14042136	-0.131523	9.855181	-0.034127	0.000438	-0.003287	-0.001173
36491	14042161	-0.156577	9.880990	-0.036379	-0.000393	0.001167	-0.000307
36492	14042186	-0.125651	9.858386	0.009118	-0.009598	0.000285	-0.002603
36493	14042211	-0.120315	9.865511	-0.018355	-0.001328	0.000104	-0.002055
36494	14042236	-0.139357	9.871430	-0.018258	-0.001352	-0.002587	0.006214
36495	14042261	-0.154342	9.878807	-0.016204	-0.005265	0.007340	-0.002000
36496	14042286	-0.136157	9.881656	-0.032591	-0.004159	0.000444	-0.002487
36497	14042311	-0.113067	9.868443	-0.048988	-0.006098	0.000861	-0.003506
36498	14042336	-0.107995	9.835951	-0.029831	-0.007075	0.001623	-0.002801
36499	14042361	-0.104273	9.833847	-0.013565	-0.006582	-0.002122	-0.003910
36500	14042386	-0.134785	9.880553	-0.021128	-0.002709	-0.000887	-0.003913
36501	14042411	-0.150883	9.879642	-0.036346	-0.006050	-0.000495	-0.003389
36502	14042436	-0.127284	9.899844	-0.036024	-0.002204	-0.000219	0.003208
36503	14042461	-0.135716	9.886532	-0.040291	-0.002518	0.001314	-0.002748
36504	14042486	-0.137333	9.881236	-0.067552	-0.006185	-0.000167	-0.001590
36505	14042511	-0.118713	9.853814	-0.027901	-0.004339	-0.002208	-0.004296
36506	14042536	-0.120074	9.859298	-0.047051	-0.005050	-0.004031	-0.003858
36507	14042561	-0.130962	9.882752	-0.037394	-0.006346	0.000526	-0.006719
36508	14042586	-0.116224	9.852094	-0.037468	-0.005548	-0.000159	-0.001976
36509	14042611	-0.138461	9.879410	-0.043138	-0.005427	-0.001776	-0.000703
36510	14042636	-0.135301	9.866506	-0.064163	-0.010428	-0.001864	-0.003320
36511	14042661	-0.134280	9.868439	-0.066090	-0.009625	-0.000417	0.001821
36512	14042686	-0.124276	9.897377	-0.058045	-0.006382	-0.002047	-0.001217
36513	14042711	-0.140032	9.859121	-0.051735	-0.005358	-0.001965	-0.000575
36514	14042736	-0.136284	9.865314	-0.050340	-0.005187	0.001082	0.002009
36515	14042761	-0.133614	9.867035	-0.035929	-0.006291	-0.001082	-0.004289
36516	14042786	-0.114305	9.856462	-0.042782	-0.004907	-0.001948	0.002369
36517	14042811	-0.119966	9.847779	-0.038356	-0.009874	-0.002882	0.000522
36518	14042836	-0.153304	9.885828	-0.040173	-0.005832	0.000678	-0.002672
36519	14042861	-0.127445	9.870474	-0.039313	-0.005423	0.001976	-0.002350
36520	14042886	-0.138106	9.857101	-0.041714	-0.003491	-0.002052	0.003332
36521	14042911	-0.142051	9.888482	-0.018179	-0.004387	0.001802	-0.000302
36522	14042936	-0.133516	9.862261	-0.034027	-0.006075	-0.001721	-0.003201
36523	14042961	-0.136414	9.858150	-0.015837	-0.003324	-0.003667	-0.000334
36524	14042986	-0.131507	9.852237	-0.028319	-0.004813	-0.000985	0.000197
36525	14043011	-0.138030	9.877377	-0.033033	-0.007945	-0.001238	-0.003515
36526	14043036	-0.128004	9.879923	-0.036415	-0.007625	0.000775	-0.001581
36527	14043061	-0.114112	9.866476	-0.014499	-0.004961	-0.000466	-0.000182
36528	14043086	-0.114611	9.857462	-0.014520	-0.001924	0.000349	-0.005701
36529	14043111	-0.125408	9.856481	-0.021614	-0.005734	-0.002356	-0.000706
36530	14043136	-0.125133	9.873718	-0.031711	-0.004016	-0.004204	-0.002132
36531	14043161	-0.107970	9.865747	-0.023625	-0.006120	-0.000501	-0.005895
36532	14043186	-0.149859	9.869456	-0.021504	-0.004818	-0.005119	-0.001490
36533	14043211	-0.123190	9.874362	-0.040767	-0.008538	-0.000796	-0.003576
36534	14043236	-0.126656	9.850909	-0.030696	-0.007735	-0.001608	0.002831
36535	14043261	-0.110214	9.862523	-0.032283	-0.003771	-0.005886	-0.003102
36536	14043286	-0.130545	9.849339	-0.023984	-0.005302	-0.003961	-0.000907
36537	14043311	-0.124010	9.870000	-0.036538	-0.001879	-0.002539	0.002809
36538	14043336	-0.123473	9.863991	-0.046127	-0.000954	-0.003505	-0.000530
36539	14043361	-0.089107	9.825050	-0.046275	-0.003216	-0.003083	0.000823
36540	14043386	-0.112963	9.859282	-0.040384	-0.005925	-0.002234	-0.000258
36541	14043411	-0.134148	9.874606	-0.035046	-0.003448	0.000393	-0.001533
36542	14043436	-0.145517	9.871780	-0.045561	-0.000268	-0.001040	-0.001867
36543	14043461	-0.120407	9.886801	-0.046106	-0.004974	-0.000013	-0.000954
36544	14043486	-0.150503	9.890617	-0.040658	-0.008374	0.000246	-0.001006
36545	14043511	-0.138322	9.876227	-0.051282	-0.005427	0.002433	0.000095
36546	14043536	-0.102154	9.839697	-0.053349	-0.005990	0.003904	0.000545
36547	14043561	-0.133330	9.886432	-0.032090	-0.007765	-0.000970	-0.001201
36548	14043586	-0.137919	9.876635	-0.046965	-0.006428	0.001439	-0.000490
36549	14043611	-0.149699	9.873361	-0.058851	-0.007392	0.001617	-0.002733
36550	14043636	-0.164865	9.899462	-0.041596	-0.002307	0.003202	0.001243
36551	14043661	-0.116563	9.866903	-0.013468	-0.008731	-0.005068	-0.002894
36552	14043686	-0.142555	9.910316	-0.050840	-0.001979	-0.003386	0.001276
36553	14043711	-0.115501	9.875112	-0.052838	-0.002232	-0.001910	-0.003092
36554	14043736	-0.138482	9.877308	-0.029143	-0.011028	0.001237	-0.000346
36555	14043761	-0.141011	9.888254	-0.033017	-0.008385	0.002438	-0.002593
36556	14043786	-0.125127	9.880996	-0.042219	-0.005774	0.001134	-0.000681
36557	14043811	-0.125959	9.863327	-0.035488	-0.004844	-0.000085	-0.003713
36558	14043836	-0.127824	9.864664	-0.031702	-0.004408	0.000252	-0.001520
36559	14043861	-0.126565	9.887332	-0.053718	-0.005883	-0.003849	-0.002635
36560	14043886	-0.114688	9.865515	-0.013942	-0.008419	-0.002672	-0.003718
36561	14043911	-0.153184	9.866177	-0.026799	-0.004537	-0.001889	-0.002888
36562	14043936	-0.101145	9.861459	-0.017892	-0.005332	-0.002535	0.004032
36563	14043961	-0.143357	9.881944	-0.026333	-0.003105	-0.002378	-0.001992
36564	14043986	-0.132631	9.866570	-0.035947	-0.007255	-0.000902	-0.002362
36565	14044011	-0.142646	9.873718	-0.045572	0.000939	-0.002626	-0.000468
36566	14044036	-0.117275	9.861528	-0.034674	0.001031	0.002934	0.001806
36567	14044061	-0.139314	9.873170	-0.038878	0.000416	-0.002114	0.001206
36568	14044086	-0.127976	9.877102	-0.037975	-0.000638	-0.003761	-0.002839
36569	14044111	-0.132425	9.885489	-0.031701	-0.001752	-0.002745	-0.002709
36570	14044136	-0.118847	9.866142	-0.027906	-0.003660	0.001037	0.000203
36571	14044161	-0.099936	9.882122	-0.034222	-0.004178	-0.002849	0.000119
36572	14044186	-0.102159	9.871281	-0.039969	-0.005423	0.004241	0.000355
36573	14044211	-0.131279	9.874619	-0.033589	-0.005040	0.004311	-0.001438
36574	14044236	-0.125952	9.867997	-0.031225	-0.003731	0.003825	0.004262
36575	14044261	-0.114240	9.844584	-0.041797	-0.005007	0.000946	-0.001524
36576	14044286	-0.132916	9.886043	-0.036902	-0.005060	0.002490	-0.005937
36577	14044311	-0.130948	9.881668	-0.028417	0.001051	0.004025	-0.002296
36578	14044336	-0.137411	9.868972	-0.041677	-0.005279	0.001131	-0.004788
36579	14044361	-0.155503	9.898888	-0.027203	-0.006287	0.000858	-0.002412
36580	14044386	-0.131008	9.860147	-0.048893	-0.008233	-0.000140	-0.001334
36581	14044411	-0.160361	9.880537	-0.041147	-0.002499	-0.005144	0.000237
36582	14044436	-0.154444	9.866506	-0.049234	-0.007214	-0.000122	-0.002028
36583	14044461	-0.156791	9.860112	-0.036338	-0.004497	0.001419	0.002132
36584	14044486	-0.129786	9.869557	-0.042701	-0.002240	0.004682	-0.001828
36585	14044511	-0.137145	9.864666	-0.069497	-0.005408	0.001591	-0.001265
36586	14044536	-0.132880	9.854386	-0.045539	-0.006156	-0.005406	-0.002770
36587	14044561	-0.143688	9.875477	-0.037792	-0.008313	-0.001827	-0.003839
36588	14044586	-0.139958	9.875827	-0.026303	-0.008696	0.000170	-0.002673
36589	14044611	-0.142658	9.877793	-0.063759	-0.003184	0.003944	-0.004144
36590	14044636	-0.133813	9.835991	-0.022552	-0.003022	0.000326	-0.007555
36591	14044661	-0.149678	9.853379	-0.024765	-0.011171	-0.000516	-0.002605
36592	14044686	-0.142298	9.883672	-0.044981	-0.007565	-0.001165	-0.002809
36593	14044711	-0.118904	9.862582	-0.012108	-0.002539	-0.002240	-0.003088
36594	14044736	-0.122921	9.877764	-0.014923	-0.005865	-0.000559	-0.005503
36595	14044761	-0.117299	9.886867	-0.016835	-0.008574	-0.001641	-0.001790
36596	14044786	-0.123213	9.864979	-0.017338	-0.005552	-0.004366	-0.005013
36597	14044811	-0.121656	9.883034	0.013791	-0.004224	-0.005233	0.002035
36598	14044836	-0.114083	9.864187	-0.019775	-0.002024	0.002173	0.000018
36599	14044861	-0.119489	9.880982	-0.036951	-0.006641	-0.002383	-0.003588
36600	14044886	-0.116643	9.864229	0.006600	-0.004598	-0.003822	-0.001553
36601	14044911	-0.108474	9.864491	-0.004426	-0.004429	-0.001106	-0.000447
36602	14044936	-0.136303	9.885627	-0.013396	-0.009246	-0.004487	0.000511
36603	14044961	-0.134730	9.883583	-0.033590	-0.003983	-0.000775	0.000262
36604	14044986	-0.101217	9.866445	-0.032365	0.001207	0.000732	-0.004430
36605	14045011	-0.115832	9.871780	0.009983	-0.006503	-0.000302	-0.002043
36606	14045036	-0.119511	9.876530	-0.024538	-0.005357	-0.000621	-0.006658
36607	14045061	-0.114663	9.876847	-0.041276	-0.007240	0.000452	-0.005366
36608	14045086	-0.124537	9.867144	-0.035483	-0.008659	-0.003254	-0.004551
36609	14045111	-0.139656	9.862881	-0.048886	-0.003441	-0.000125	-0.004223
36610	14045136	-0.149748	9.869128	-0.031110	-0.006182	0.000164	0.001812
36611	14045161	-0.147416	9.872741	-0.047816	-0.009571	-0.002499	-0.002232
36612	14045186	-0.143777	9.860788	-0.069489	-0.001591	-0.001772	-0.002573
36613	14045211	-0.150859	9.888971	-0.057458	-0.004134	-0.000198	-0.001657
36614	14045236	-0.135718	9.889918	-0.044545	-0.009987	-0.003795	-0.002815
36615	14045261	-0.143653	9.884233	-0.052235	-0.001507	-0.001951	0.003394
36616	14045286	-0.151631	9.867340	-0.040155	-0.006342	0.000867	0.000598
36617	14045311	-0.143345	9.860200	-0.061785	-0.006530	-0.003800	-0.003915
36618	14045336	-0.118755	9.844398	-0.064312	-0.004399	-0.001810	0.002243
36619	14045361	-0.122292	9.873276	-0.030699	-0.009303	-0.001007	-0.005114
36620	14045386	-0.137971	9.877539	-0.043573	-0.007428	0.000516	-0.003053
36621	14045411	-0.112312	9.856243	-0.057568	-0.009093	-0.001378	0.000523
36622	14045436	-0.109761	9.874212	-0.051388	-0.005928	-0.000429	-0.003329
36623	14045461	-0.126464	9.877151	-0.040370	0.000031	-0.002256	0.001657
36624	14045486	-0.139655	9.864802	-0.050256	-0.008424	0.007996	-0.000322
36625	14045511	-0.128537	9.848221	-0.042188	-0.009240	0.003394	-0.001691
36626	14045536	-0.119493	9.850645	-0.038387	-0.005244	-0.001699	-0.000124
36627	14045561	-0.152944	9.854887	-0.032997	-0.004587	-0.000271	-0.003326
36628	14045586	-0.141077	9.885544	-0.011487	-0.004978	-0.001699	-0.000189
36629	14045611	-0.126920	9.868505	-0.034043	-0.009097	0.003208	0.001514
36630	14045636	-0.139653	9.899348	-0.044592	-0.003302	-0.000119	-0.001660
36631	14045661	-0.133649	9.867846	-0.026352	-0.006004	-0.000109	-0.003766
36632	14045686	-0.116126	9.865403	-0.007780	-0.002807	-0.003862	-0.002325
36633	14045711	-0.090970	9.847069	-0.029397	-0.009443	0.001778	-0.001512
36634	14045736	-0.121376	9.876408	-0.018781	-0.004822	-0.000396	0.003019
36635	14045761	-0.137011	9.867173	-0.016248	-0.007966	-0.000586	-0.001134
36636	14045786	-0.095779	9.843904	-0.012700	-0.003949	0.000130	-0.001217
36637	14045811	-0.135975	9.862590	-0.025951	-0.000249	-0.001621	-0.001870
36638	14045836	-0.133102	9.869502	-0.041199	-0.007170	-0.003678	-0.003335
36639	14045861	-0.142046	9.889512	-0.023404	-0.008035	-0.002597	-0.002494
36640	14045886	-0.145533	9.862940	-0.025792	-0.007449	-0.000978	-0.004928
36641	14045911	-0.163272	9.865790	-0.009494	-0.001489	-0.000797	-0.001793
36642	14045936	-0.144204	9.880384	-0.048372	-0.004959	-0.000870	-0.007112
36643	14045961	-0.153875	9.883488	-0.011441	-0.003935	-0.004385	0.001721
36644	14045986	-0.145271	9.888184	-0.032579	-0.003321	-0.005481	0.000876
36645	14046011	-0.127933	9.878518	-0.037895	-0.003886	-0.001869	0.002499
36646	14046036	-0.118717	9.872784	-0.058062	-0.007752	0.005169	-0.000851
36647	14046061	-0.112886	9.878926	-0.021153	-0.009169	-0.001198	-0.004609
36648	14046086	-0.124674	9.881896	-0.038961	-0.001813	0.001529	0.000519
36649	14046111	-0.120092	9.862733	-0.053304	-0.002849	-0.004570	-0.001687
36650	14046136	-0.144511	9.874660	-0.047888	-0.005732	-0.000156	0.001934
36651	14046161	-0.120727	9.864283	-0.032170	-0.007200	-0.000516	-0.001587
36652	14046186	-0.130156	9.858953	-0.032611	-0.005840	0.005201	0.000103
36653	14046211	-0.140631	9.868927	-0.041670	-0.005241	-0.003245	0.004871
36654	14046236	-0.123875	9.854458	-0.043202	-0.004040	-0.005628	-0.003804
36655	14046261	-0.110217	9.868849	-0.042291	-0.005010	0.001143	-0.002038
36656	14046286	-0.131258	9.876549	-0.036003	-0.003470	-0.005026	0.001137
36657	14046311	-0.127735	9.858137	-0.038854	-0.005664	0.001584	-0.002033
36658	14046336	-0.151139	9.870428	-0.054603	-0.003418	0.001426	-0.001910
36659	14046361	-0.141510	9.860945	-0.047543	0.003274	-0.003818	-0.002021
36660	14046386	-0.123744	9.873163	-0.025453	-0.005184	-0.003712	-0.002128
36661	14046411	-0.149216	9.864532	-0.039706	-0.005622	-0.003840	-0.001033
36662	14046436	-0.156543	9.866005	-0.018133	-0.005034	-0.000149	-0.000119
36663	14046461	-0.126545	9.870754	-0.024978	-0.006561	-0.004770	-0.003792
36664	14046486	-0.125822	9.853750	-0.030237	-0.005539	-0.002354	-0.000834
36665	14046511	-0.138689	9.858041	-0.041212	-0.004756	-0.003187	-0.004879
36666	14046536	-0.136576	9.850298	-0.060450	-0.000098	0.003552	-0.004792
36667	14046561	-0.117089	9.874129	-0.020757	0.000402	-0.004120	-0.001763
36668	14046586	-0.135964	9.865486	-0.029237	-0.003324	-0.001536	-0.000709
36669	14046611	-0.139025	9.871038	-0.022991	-0.005999	0.001566	-0.006644
36670	14046636	-0.113955	9.875292	-0.063903	-0.002854	-0.000302	-0.001083
36671	14046661	-0.140553	9.886246	-0.025858	-0.005029	0.001657	-0.002861
36672	14046686	-0.122741	9.859425	0.004704	-0.003375	-0.003667	0.002040
36673	14046711	-0.145839	9.882663	-0.012412	-0.005163	-0.002158	-0.003079
36674	14046736	-0.141911	9.871684	-0.005740	-0.002414	0.000028	-0.002114
36675	14046761	-0.165742	9.888776	-0.025682	-0.010616	-0.003475	0.002706
36676	14046786	-0.146117	9.862423	0.007289	-0.008166	-0.002137	0.001356
36677	14046811	-0.130225	9.870553	-0.046108	-0.002681	-0.003734	-0.001231
36678	14046836	-0.140647	9.865252	-0.049421	-0.001046	-0.002868	-0.003026
36679	14046861	-0.138054	9.859772	-0.061352	-0.005139	-0.009000	0.001119
36680	14046886	-0.131087	9.870739	-0.059439	-0.007483	0.002521	0.000541
36681	14046911	-0.148432	9.872466	-0.030642	-0.002214	0.001906	-0.001393
36682	14046936	-0.140914	9.886868	-0.035952	-0.003640	-0.003284	0.002813
36683	14046961	-0.122874	9.858258	-0.042758	-0.004195	-0.002064	0.003204
36684	14046986	-0.136218	9.882556	-0.029276	-0.001065	0.001793	-0.003512
36685	14047011	-0.126350	9.874673	-0.063773	-0.005525	0.003396	-0.001961
36686	14047036	-0.142023	9.861781	-0.041171	-0.009334	-0.001581	0.001106
36687	14047061	-0.114532	9.836626	-0.048530	-0.005078	-0.000858	-0.001018
36688	14047086	-0.118084	9.898061	-0.066249	-0.005403	0.003393	-0.003688
36689	14047111	-0.140115	9.868063	-0.046453	-0.005642	-0.000924	0.002314
36690	14047136	-0.114267	9.851397	-0.052328	-0.006472	-0.001606	-0.005509
36691	14047161	-0.140638	9.864342	-0.051226	-0.007637	-0.001107	-0.005122
36692	14047186	-0.136752	9.862012	-0.050856	-0.001331	-0.006093	-0.001952
36693	14047211	-0.123738	9.883480	-0.048503	-0.003903	-0.005823	-0.003293
36694	14047236	-0.142838	9.886061	-0.046444	-0.002934	0.002213	-0.002736
36695	14047261	-0.111535	9.865117	-0.048571	-0.003371	-0.003864	0.001845
36696	14047286	-0.140354	9.868604	-0.019175	-0.000679	-0.002138	-0.000845
36697	14047311	-0.112033	9.859546	-0.025577	-0.001949	0.002247	0.005081
36698	14047336	-0.145547	9.881170	-0.039273	-0.004371	-0.000255	0.003925
36699	14047361	-0.135061	9.866927	-0.029775	-0.002345	0.001960	-0.002301
36700	14047386	-0.118453	9.837765	-0.033196	-0.001794	-0.005518	-0.000732
36701	14047411	-0.158158	9.890453	-0.035825	-0.006852	-0.001541	-0.002998
36702	14047436	-0.164414	9.890574	-0.018546	-0.003621	-0.006451	0.000234
36703	14047461	-0.133339	9.877227	-0.019204	-0.004406	0.002316	-0.003059
36704	14047486	-0.143271	9.879496	-0.021050	-0.005931	0.002496	0.003877
36705	14047511	-0.136504	9.876166	-0.045542	-0.004920	0.000301	-0.003262
36706	14047536	-0.140046	9.882915	-0.024889	-0.006118	0.001836	-0.001644
36707	14047561	-0.147417	9.868139	-0.026365	-0.000396	-0.001034	-0.000128
36708	14047586	-0.155072	9.877436	-0.050756	-0.001578	-0.000158	-0.004040
36709	14047611	-0.135409	9.877302	-0.056550	-0.003698	-0.003804	0.002229
36710	14047636	-0.136016	9.866756	-0.019637	-0.006372	-0.002366	0.000325
36711	14047661	-0.114085	9.859936	-0.021174	-0.005528	0.005461	-0.003229
36712	14047686	-0.114469	9.868753	-0.040370	-0.004831	-0.000077	0.001746
36713	14047711	-0.133742	9.875287	-0.017717	-0.005457	-0.000663	0.002383
36714	14047736	-0.132312	9.876370	-0.024937	-0.006026	-0.005141	0.000179
36715	14047761	-0.125601	9.869183	-0.014928	-0.006166	-0.000621	0.000657
36716	14047786	-0.124610	9.852360	0.000396	-0.004195	-0.002535	-0.003661
36717	14047811	-0.135895	9.856903	-0.026322	-0.006063	0.004229	-0.001566
36718	14047836	-0.135707	9.889448	-0.045040	-0.007841	-0.000587	-0.002354
36719	14047861	-0.129288	9.880747	-0.060368	-0.009413	0.002877	-0.000474
36720	14047886	-0.133587	9.866005	-0.030651	-0.008617	0.001854	-0.002213
36721	14047911	-0.137846	9.862959	-0.021625	-0.000952	0.000772	0.001030
36722	14047936	-0.134180	9.884167	-0.039817	-0.001149	-0.001302	0.001532
36723	14047961	-0.134242	9.888697	-0.056602	-0.003569	0.002134	-0.001714
36724	14047986	-0.119665	9.871226	-0.050918	-0.001760	-0.002347	0.001596
36725	14048011	-0.142356	9.852411	-0.048815	-0.007281	-0.001809	-0.000311
36726	14048036	-0.137351	9.871382	-0.044560	-0.004818	-0.000784	0.000070
36727	14048061	-0.165712	9.885587	-0.034295	-0.011910	0.002831	-0.000718
36728	14048086	-0.134888	9.893082	-0.033541	-0.007890	0.001021	-0.004211
36729	14048111	-0.128473	9.883761	-0.039837	-0.004199	-0.002129	0.001156
36730	14048136	-0.127254	9.864904	-0.046493	-0.008939	0.004247	0.000559
36731	14048161	-0.129905	9.879911	-0.037450	-0.002898	0.001247	-0.001782
36732	14048186	-0.128919	9.882391	-0.043680	-0.002128	0.003526	0.001179
36733	14048211	-0.142787	9.876776	-0.028207	-0.008100	-0.000529	-0.001839
36734	14048236	-0.139330	9.869335	-0.035027	-0.001223	-0.005515	-0.003296
36735	14048261	-0.132253	9.874580	-0.032157	-0.003833	-0.001808	-0.002760
36736	14048286	-0.124446	9.861887	-0.033098	-0.006063	0.000225	0.000595
36737	14048311	-0.149474	9.881079	-0.036306	-0.009336	-0.004107	-0.003971
36738	14048336	-0.129510	9.888601	-0.046966	-0.006828	-0.000510	-0.004150
36739	14048361	-0.117148	9.880787	-0.022137	-0.007755	0.000967	-0.000302
36740	14048386	-0.148200	9.858940	-0.045962	-0.003335	-0.001547	-0.003333
36741	14048411	-0.149390	9.872609	-0.040594	-0.010447	-0.003548	-0.004673
36742	14048436	-0.142029	9.860796	-0.038322	-0.005007	0.001210	0.000849
36743	14048461	-0.125447	9.875841	-0.047535	-0.002627	-0.000808	0.003980
36744	14048486	-0.141456	9.880482	-0.021978	-0.008099	-0.002469	-0.002238
36745	14048511	-0.144297	9.853633	-0.037307	-0.006963	-0.003600	0.003144
36746	14048536	-0.153778	9.887709	-0.039153	-0.009428	-0.002615	0.001293
36747	14048561	-0.169002	9.879356	-0.032922	-0.005640	-0.003201	-0.001414
36748	14048586	-0.161819	9.878522	-0.034862	-0.005883	0.002614	-0.000417
36749	14048611	-0.134157	9.869713	-0.024525	0.001320	0.003646	-0.001395
36750	14048636	-0.122355	9.880293	-0.025421	-0.007461	-0.002582	-0.001149
36751	14048661	-0.136843	9.862703	-0.034491	-0.004925	0.000502	-0.000815
36752	14048686	-0.096184	9.841869	-0.035275	0.001501	-0.000690	-0.005338
36753	14048711	-0.118804	9.862397	-0.030755	-0.004414	0.002311	-0.003889
36754	14048736	-0.112592	9.871668	-0.043292	-0.006199	-0.003654	0.001982
36755	14048761	-0.100770	9.871297	-0.039580	0.001085	-0.003603	-0.003935
36756	14048786	-0.104399	9.864700	-0.045681	-0.006236	-0.004752	0.000437
36757	14048811	-0.104011	9.869027	-0.048513	-0.009823	-0.002889	-0.004354
36758	14048836	-0.114121	9.876372	-0.041300	-0.007728	-0.000069	-0.001520
36759	14048861	-0.110832	9.884584	-0.048600	-0.000530	-0.002654	0.000624
36760	14048886	-0.122158	9.903592	-0.027888	-0.002646	-0.004885	-0.001369
36761	14048911	-0.123058	9.873965	-0.047006	-0.009117	-0.000405	0.003222
36762	14048936	-0.096436	9.852081	-0.082725	0.000718	-0.001863	-0.001745
36763	14048961	-0.127350	9.870636	-0.048997	-0.000636	-0.001433	-0.000902
36764	14048986	-0.115527	9.871099	-0.038904	-0.006069	0.002153	-0.004405
36765	14049011	-0.119413	9.853822	-0.061418	-0.004765	-0.000204	0.001168
36766	14049036	-0.146229	9.900363	-0.053700	0.000365	-0.002371	0.002614
36767	14049061	-0.153292	9.857756	-0.065563	-0.006603	-0.001474	-0.002941
36768	14049086	-0.160627	9.866053	-0.055948	-0.005916	-0.000690	-0.004289
36769	14049111	-0.138787	9.874322	-0.050782	-0.006367	0.001641	-0.000867
36770	14049136	-0.147394	9.868447	-0.046460	-0.003155	-0.002965	-0.003535
36771	14049161	-0.139269	9.862507	-0.023949	-0.006242	-0.002232	0.001097
36772	14049186	-0.143682	9.869069	-0.022444	-0.008330	-0.001048	0.000271
36773	14049211	-0.191197	9.901886	-0.034218	-0.006080	0.000346	-0.003760
36774	14049236	-0.143699	9.878828	-0.040162	-0.009610	-0.003204	-0.000635
36775	14049261	-0.161262	9.866116	-0.029628	-0.004171	0.000568	-0.005627
36776	14049286	-0.173485	9.889619	-0.024738	-0.004978	-0.000025	-0.003128
36777	14049311	-0.134481	9.864676	-0.037893	-0.002976	-0.004378	-0.000015
36778	14049336	-0.145574	9.862232	-0.010053	0.000635	0.000985	-0.001980
36779	14049361	-0.123531	9.852963	-0.008174	-0.009342	0.000682	0.001185
36780	14049386	-0.120760	9.857267	-0.007286	-0.005446	-0.001125	0.000195
36781	14049411	-0.154806	9.888530	-0.031571	-0.002939	-0.001593	-0.000770
36782	14049436	-0.102273	9.866964	-0.005441	-0.002673	-0.001787	0.002043
36783	14049461	-0.096866	9.854346	-0.014105	-0.005014	0.003339	-0.000103
36784	14049486	-0.105363	9.875303	0.005076	-0.003038	-0.000504	-0.001924
36785	14049511	-0.099839	9.872669	-0.035635	-0.006844	-0.003867	-0.002700
36786	14049536	-0.133283	9.877229	-0.019661	-0.005378	-0.001375	0.000453
36787	14049561	-0.142813	9.875769	-0.025376	-0.005697	-0.001460	-0.001919
36788	14049586	-0.124163	9.872298	-0.031189	-0.006846	0.000003	-0.005560
36789	14049611	-0.110915	9.864015	-0.068216	-0.003406	-0.003089	-0.000075
36790	14049636	-0.153405	9.879836	-0.020110	-0.000955	-0.001962	-0.006998
36791	14049661	-0.148151	9.883785	-0.026358	0.000729	0.001895	-0.001852
36792	14049686	-0.108849	9.874084	-0.042241	-0.011639	0.000316	0.000285
36793	14049711	-0.112416	9.878395	-0.017409	-0.002460	-0.000624	-0.003210
36794	14049736	-0.137098	9.886832	-0.030687	-0.005206	-0.000334	0.004306
36795	14049761	-0.130190	9.865872	-0.050366	-0.005297	0.000034	-0.003198
36796	14049786	-0.129339	9.867077	-0.034562	-0.002524	-0.000691	-0.004685
36797	14049811	-0.145455	9.866927	-0.038767	-0.004782	-0.002278	-0.003204
36798	14049836	-0.137418	9.864444	-0.024899	-0.007130	-0.002772	-0.001408
36799	14049861	-0.116741	9.856484	-0.046162	-0.002448	-0.003217	-0.004560
36800	14049886	-0.144163	9.878313	-0.037887	-0.000498	-0.007892	-0.000352
36801	14049911	-0.122831	9.853620	-0.049978	-0.001982	0.000873	0.000590
36802	14049936	-0.143616	9.877069	-0.048779	-0.009021	0.002557	-0.001876
36803	14049961	-0.118112	9.886699	-0.037021	-0.004324	-0.000404	-0.002614
36804	14049986	-0.140961	9.894586	-0.044560	-0.004083	-0.001618	0.001356
36805	14050011	-0.173277	9.884219	-0.043946	-0.003837	-0.001296	-0.002174
36806	14050036	-0.134061	9.872336	-0.042161	-0.008632	0.002758	0.001264
36807	14050061	-0.153339	9.863949	-0.067032	-0.001888	-0.002488	-0.001673
36808	14050086	-0.153976	9.863131	-0.045461	-0.003615	-0.000519	-0.003129
36809	14050111	-0.158230	9.859727	-0.043016	-0.004624	-0.001122	-0.005439
36810	14050136	-0.154295	9.883925	-0.040144	-0.007237	0.000381	-0.006124
36811	14050161	-0.112838	9.874100	-0.014958	-0.005883	-0.001590	-0.001468
36812	14050186	-0.126773	9.862131	-0.050829	-0.006157	0.003055	-0.004135
36813	14050211	-0.136249	9.878391	-0.004774	-0.005077	-0.000602	0.000273
36814	14050236	-0.136367	9.883205	-0.010095	-0.003476	0.001225	-0.002542
36815	14050261	-0.125717	9.876834	-0.018718	-0.007127	-0.002779	-0.003073
36816	14050286	-0.107507	9.864033	-0.004534	0.001645	-0.002556	0.000559
36817	14050311	-0.113954	9.852182	-0.010645	-0.005345	-0.000085	0.000910
36818	14050336	-0.142372	9.875525	-0.009132	-0.000636	-0.003104	0.003132
36819	14050361	-0.105985	9.860474	-0.018825	-0.004032	0.000899	0.000149
36820	14050386	-0.133652	9.866796	-0.020121	-0.008260	-0.001308	-0.002418
36821	14050411	-0.113723	9.876162	-0.027443	-0.004762	-0.002474	-0.000378
36822	14050436	-0.109213	9.862619	-0.037967	-0.004382	-0.000207	0.000270
36823	14050461	-0.126302	9.857559	-0.031704	-0.004832	-0.000142	0.001684
36824	14050486	-0.122965	9.877549	-0.001030	-0.005569	-0.003459	-0.002439
36825	14050511	-0.138412	9.877003	-0.039797	-0.004631	0.001667	-0.000162
36826	14050536	-0.137883	9.907942	-0.046029	-0.004008	-0.000145	-0.005051
36827	14050561	-0.113796	9.840477	-0.020724	-0.004582	-0.002213	-0.002369
36828	14050586	-0.120858	9.879917	-0.030312	-0.001320	0.000171	0.001295
36829	14050611	-0.138107	9.884624	-0.042184	-0.005202	-0.000875	-0.004479
36830	14050636	-0.129551	9.861808	-0.062863	-0.004384	-0.004806	-0.005522
36831	14050661	-0.161268	9.880198	-0.049769	-0.001074	0.004637	-0.001052
36832	14050686	-0.126023	9.849006	-0.060529	0.001509	-0.002296	0.000694
36833	14050711	-0.123349	9.864430	-0.073942	-0.002076	0.001444	-0.003511
36834	14050736	-0.154391	9.879305	-0.079439	-0.006160	0.003584	-0.000149
36835	14050761	-0.114578	9.845336	-0.059545	-0.005560	0.000420	-0.001715
36836	14050786	-0.145757	9.852695	-0.039241	-0.004926	-0.001314	-0.000696
36837	14050811	-0.133825	9.869681	-0.084905	-0.000811	-0.000416	-0.005831
36838	14050836	-0.168363	9.872423	-0.043924	-0.005262	0.001068	-0.004014
36839	14050861	-0.161600	9.897700	-0.047375	-0.001414	0.000480	-0.006978
36840	14050886	-0.171349	9.886670	-0.047795	-0.001749	-0.000478	0.000840
36841	14050911	-0.120970	9.848106	-0.028798	-0.007388	0.001745	0.000611
36842	14050936	-0.107974	9.851076	-0.056643	-0.008629	-0.003961	0.000264
36843	14050961	-0.147839	9.875146	-0.050755	-0.005955	-0.000942	0.002131
36844	14050986	-0.132391	9.858807	-0.055593	-0.005794	-0.000101	0.000596
36845	14051011	-0.138851	9.856205	-0.014411	-0.001000	-0.000548	-0.005896
36846	14051036	-0.120525	9.862521	-0.071071	-0.001444	-0.004956	-0.008610
36847	14051061	-0.117845	9.868121	-0.031802	0.001083	-0.001016	0.000705
36848	14051086	-0.121951	9.867936	0.008125	-0.008030	0.001538	-0.001185
36849	14051111	-0.121493	9.883112	-0.022572	-0.007296	0.002712	-0.001244
36850	14051136	-0.119548	9.869462	0.003759	-0.006115	-0.006442	-0.002387
36851	14051161	-0.139448	9.911699	-0.014376	-0.003578	-0.003158	0.002311
36852	14051186	-0.109989	9.877509	-0.018837	-0.005472	-0.000551	-0.002418
36853	14051211	-0.123693	9.860956	-0.002963	-0.001401	-0.001317	-0.000320
36854	14051236	-0.124345	9.876914	0.008112	-0.006218	-0.002684	0.003727
36855	14051261	-0.120393	9.882803	-0.033115	-0.008306	0.002576	0.003242
36856	14051286	-0.122215	9.871864	-0.032663	-0.006726	-0.005162	-0.000520
36857	14051311	-0.147009	9.871541	-0.030658	-0.004196	-0.002401	-0.003137
36858	14051336	-0.131218	9.864574	-0.028763	-0.005642	-0.000811	0.000784
36859	14051361	-0.143579	9.864384	-0.025891	-0.001186	-0.004287	0.000118
36860	14051386	-0.112370	9.881801	-0.022678	-0.003949	0.002457	0.000602
36861	14051411	-0.140131	9.889607	-0.027794	-0.002633	-0.001080	-0.003397
36862	14051436	-0.124967	9.857540	-0.028384	-0.000709	-0.001508	-0.005072
36863	14051461	-0.134153	9.880888	-0.043162	-0.004447	-0.002269	0.000203
36864	14051486	-0.136410	9.875335	-0.053158	-0.006413	0.001247	-0.001638
36865	14051511	-0.135966	9.871489	-0.049772	-0.010796	0.001675	-0.004447
36866	14051536	-0.155531	9.875004	-0.047385	-0.002924	0.000007	-0.003065
36867	14051561	-0.130162	9.867710	-0.046555	-0.003488	-0.000058	-0.000119
36868	14051586	-0.127671	9.856825	-0.046052	-0.006197	-0.001857	-0.002553
36869	14051611	-0.132622	9.876257	-0.048459	-0.001661	-0.001377	0.000644
36870	14051636	-0.126379	9.868681	-0.045107	-0.003706	0.000644	0.000983
36871	14051661	-0.120741	9.875565	-0.055248	-0.001848	-0.003853	-0.003344
36872	14051686	-0.134530	9.874332	-0.048432	-0.004889	-0.002603	-0.001277
36873	14051711	-0.154708	9.887296	-0.044483	-0.004996	-0.003318	-0.000896
36874	14051736	-0.111310	9.846568	-0.045272	0.000340	0.000662	0.001995
36875	14051761	-0.118644	9.872074	-0.073875	-0.006407	-0.005414	-0.001934
36876	14051786	-0.148837	9.870461	-0.055106	-0.002103	-0.001989	-0.006925
36877	14051811	-0.151679	9.868813	-0.042579	-0.007364	0.000444	-0.004973
36878	14051836	-0.139007	9.878695	-0.026783	-0.008349	-0.000599	-0.001319
36879	14051861	-0.133613	9.877199	-0.049875	-0.004169	-0.000852	-0.000115
36880	14051886	-0.125317	9.883020	-0.019736	-0.002591	-0.000636	-0.004031
36881	14051911	-0.117091	9.851181	-0.040370	-0.006507	-0.001980	0.001805
36882	14051936	-0.144657	9.871888	-0.021542	-0.003567	-0.001679	0.000140
36883	14051961	-0.128909	9.881984	-0.048017	-0.001685	-0.002871	-0.002702
36884	14051986	-0.144154	9.875477	-0.038290	-0.007007	0.001556	-0.001696
36885	14052011	-0.136150	9.865355	0.010056	-0.004402	0.000644	0.001173
36886	14052036	-0.152926	9.860295	-0.045469	-0.003052	0.000209	0.000079
36887	14052061	-0.130584	9.846942	-0.022013	-0.009194	0.001834	-0.004449
36888	14052086	-0.137010	9.875578	-0.038285	-0.010566	-0.001287	-0.002284
36889	14052111	-0.134194	9.869075	-0.014306	-0.011571	0.000250	-0.000729
36890	14052136	-0.130641	9.853683	-0.029234	-0.009045	0.001127	-0.004330
36891	14052161	-0.119215	9.863524	-0.043177	-0.006822	0.003950	-0.002649
36892	14052186	-0.116862	9.869271	-0.043674	-0.008844	-0.001194	-0.003442
36893	14052211	-0.144280	9.882057	-0.034440	-0.005746	-0.001913	-0.001973
36894	14052236	-0.132369	9.855451	-0.052727	-0.005792	-0.000167	-0.001654
36895	14052261	-0.137208	9.877155	-0.018260	-0.003201	-0.003815	-0.006418
36896	14052286	-0.125732	9.849070	-0.034111	-0.002882	-0.003673	-0.003211
36897	14052311	-0.128328	9.876950	-0.059462	-0.006247	-0.000307	-0.001904
36898	14052336	-0.133995	9.875595	-0.068069	-0.006486	-0.000964	-0.005694
36899	14052361	-0.135414	9.860307	-0.031623	-0.004476	-0.001436	-0.001147
36900	14052386	-0.124854	9.863191	-0.057097	-0.005031	0.001843	-0.002924
36901	14052411	-0.162572	9.876533	-0.059777	-0.005080	-0.000343	-0.000235
36902	14052436	-0.126608	9.852290	-0.059003	-0.004737	-0.005451	-0.001489
36903	14052461	-0.143946	9.888074	-0.023479	-0.004508	-0.002867	-0.006281
36904	14052486	-0.134854	9.856802	-0.049806	-0.007969	0.001271	-0.005995
36905	14052511	-0.130357	9.847309	-0.046497	-0.006485	-0.004761	0.001410
36906	14052536	-0.147061	9.866235	-0.025792	-0.007053	0.004709	-0.008158
36907	14052561	-0.132792	9.871052	-0.018227	-0.005299	-0.001971	-0.003329
36908	14052586	-0.095312	9.856658	-0.039971	-0.005816	0.000091	-0.003318
36909	14052611	-0.152484	9.884706	-0.027696	-0.008507	-0.002100	-0.006649
36910	14052636	-0.149454	9.838211	-0.025865	-0.000615	0.000116	-0.000311
36911	14052661	-0.160779	9.868031	-0.030115	-0.002286	-0.001918	-0.001986
36912	14052686	-0.121346	9.883827	-0.038463	-0.003827	-0.001681	-0.001791
36913	14052711	-0.121857	9.874582	-0.024069	-0.003111	0.000142	-0.000052
36914	14052736	-0.138897	9.876572	-0.042650	-0.004163	-0.003502	-0.003147
36915	14052761	-0.113262	9.869379	-0.017442	0.001289	0.000414	-0.001730
36916	14052786	-0.132787	9.869975	-0.010183	0.000860	-0.001980	0.000507
36917	14052811	-0.148194	9.877799	-0.007151	-0.001751	-0.000483	-0.002623
36918	14052836	-0.171413	9.905450	-0.003189	-0.003798	-0.002587	-0.002238
36919	14052861	-0.117899	9.863375	-0.031752	-0.003617	0.001349	-0.006329
36920	14052886	-0.118814	9.855968	-0.013933	-0.008352	0.001661	-0.002341
36921	14052911	-0.153372	9.888613	-0.035849	-0.006413	0.001308	-0.001575
36922	14052936	-0.152102	9.866465	-0.044556	-0.001878	0.001517	-0.000624
36923	14052961	-0.156802	9.901871	-0.037296	-0.004956	-0.002213	0.001933
36924	14052986	-0.144614	9.874028	-0.036865	-0.005612	0.002031	-0.000545
36925	14053011	-0.150314	9.857501	-0.077100	-0.006931	-0.000826	-0.000109
36926	14053036	-0.152080	9.857643	-0.026748	-0.005911	0.001381	-0.000931
36927	14053061	-0.133344	9.851580	-0.048414	-0.004937	-0.001255	-0.003968
36928	14053086	-0.106879	9.842093	-0.059078	-0.006633	0.002021	-0.000347
36929	14053111	-0.113424	9.856044	-0.045668	-0.003687	0.001872	-0.003508
36930	14053136	-0.099211	9.864325	-0.048088	-0.007302	0.002643	-0.004581
36931	14053161	-0.128839	9.867613	-0.038893	-0.003101	-0.000578	-0.004484
36932	14053186	-0.109595	9.831327	-0.070126	-0.004511	-0.004801	-0.003602
36933	14053211	-0.127614	9.849543	-0.035044	-0.003743	-0.002387	0.000003
36934	14053236	-0.109879	9.926438	-0.054319	-0.003758	-0.003684	0.001086
36935	14053261	-0.127007	9.849790	-0.051290	-0.010930	0.002530	0.003572
36936	14053286	-0.147416	9.881802	-0.051231	-0.004229	-0.005047	0.002363
36937	14053311	-0.112380	9.933716	-0.066281	-0.002134	0.001316	-0.002222
36938	14053336	-0.148890	9.880315	-0.047896	-0.003473	-0.000902	-0.002557
36939	14053361	-0.134474	9.853315	-0.008066	-0.009656	0.002876	0.002162
36940	14053386	-0.127707	9.885894	-0.023519	-0.007991	0.000179	-0.002344
36941	14053411	-0.122747	9.833336	-0.026399	-0.006545	-0.000894	-0.001076
36942	14053436	-0.134868	9.857994	-0.035920	-0.007673	0.000709	0.001436
36943	14053461	-0.147181	9.879499	-0.023788	-0.012548	0.000353	-0.005278
36944	14053486	-0.120095	9.863597	-0.048512	-0.004078	-0.003886	-0.000131
36945	14053511	-0.096344	9.858036	-0.037539	-0.009637	-0.002569	-0.003839
36946	14053536	-0.118824	9.880896	-0.061420	-0.009212	-0.003783	-0.002491
36947	14053561	-0.149836	9.878355	-0.045010	-0.003728	-0.002842	-0.000319
36948	14053586	-0.150047	9.859540	-0.055525	-0.007060	-0.004907	-0.001602
36949	14053611	-0.157997	9.848930	-0.050644	-0.007345	0.000200	-0.000867
36950	14053636	-0.153043	9.881046	-0.068917	-0.007421	0.002913	0.002798
36951	14053661	-0.125013	9.858828	-0.018725	-0.006896	0.000006	-0.002606
36952	14053686	-0.162110	9.867904	-0.054037	-0.005096	-0.000486	-0.005686
36953	14053711	-0.139808	9.873535	-0.032041	-0.005846	-0.002424	0.002702
36954	14053736	-0.150526	9.887033	-0.023371	-0.008599	-0.004797	-0.000252
36955	14053761	-0.130200	9.871549	-0.049886	-0.004269	0.002253	0.000735
36956	14053786	-0.142873	9.888651	-0.030115	-0.009486	-0.002615	0.003098
36957	14053811	-0.145961	9.863300	-0.020108	-0.005665	0.000037	0.002137
36958	14053836	-0.131593	9.851146	-0.018754	-0.001813	-0.000808	-0.002107
36959	14053861	-0.137884	9.865885	-0.026415	-0.001261	-0.002228	-0.004363
36960	14053886	-0.115071	9.868013	-0.023572	-0.005628	0.000679	0.000790
36961	14053911	-0.125462	9.869663	-0.046083	-0.003071	0.002526	-0.004140
36962	14053936	-0.127307	9.870153	-0.048928	-0.005105	-0.001763	-0.000121
36963	14053961	-0.145900	9.904857	-0.037860	-0.001533	0.003147	0.002401
36964	14053986	-0.146201	9.885770	-0.029747	0.002095	0.001654	-0.000373
36965	14054011	-0.136532	9.864801	-0.016285	-0.005028	-0.000089	-0.000046
36966	14054036	-0.132943	9.859991	-0.040755	-0.005130	-0.002995	0.000964
36967	14054061	-0.143376	9.860956	-0.049878	-0.000001	0.001043	0.001815
36968	14054086	-0.136742	9.856111	-0.037890	-0.001964	0.000164	-0.001340
36969	14054111	-0.132697	9.870850	-0.036899	-0.006856	-0.001287	-0.002870
36970	14054136	-0.142501	9.894441	-0.035893	-0.006726	-0.003354	-0.003779
36971	14054161	-0.117313	9.857307	-0.037948	-0.006659	0.002526	-0.005540
36972	14054186	-0.118681	9.856741	-0.033179	-0.004417	-0.005639	-0.003220
36973	14054211	-0.129941	9.879939	-0.038862	-0.004582	-0.002284	-0.003015
36974	14054236	-0.149961	9.881008	-0.032055	-0.004335	-0.001691	-0.001019
36975	14054261	-0.130963	9.872930	-0.015800	-0.007565	0.003093	-0.003357
36976	14054286	-0.130042	9.854918	-0.047438	-0.008056	0.002179	-0.004707
36977	14054311	-0.140433	9.851535	-0.051734	-0.006178	-0.000174	-0.001135
36978	14054336	-0.138309	9.865387	-0.024921	-0.006010	-0.001067	0.003035
36979	14054361	-0.129610	9.867395	-0.056626	-0.005229	-0.001574	0.002453
36980	14054386	-0.132970	9.867282	-0.051345	-0.000355	-0.006010	0.002280
36981	14054411	-0.130089	9.859647	-0.045996	-0.008306	0.002311	-0.001052
36982	14054436	-0.144276	9.880525	-0.027245	-0.008447	0.000627	-0.001569
36983	14054461	-0.140792	9.870725	-0.034546	-0.002398	-0.004768	-0.004819
36984	14054486	-0.137201	9.851501	-0.046986	-0.003859	-0.001244	-0.008331
36985	14054511	-0.141052	9.902663	-0.045108	0.000489	-0.002110	0.003716
36986	14054536	-0.146718	9.869121	0.003460	-0.008027	-0.004800	-0.003658
36987	14054561	-0.149847	9.872407	-0.028319	0.002246	-0.003318	0.000948
36988	14054586	-0.148867	9.888196	-0.066636	-0.000529	-0.002727	-0.000899
36989	14054611	-0.139382	9.875017	-0.034965	-0.002144	0.001839	-0.001323
36990	14054636	-0.128304	9.889482	-0.010131	-0.002965	0.001431	-0.002867
36991	14054661	-0.133780	9.872441	-0.016805	-0.004961	-0.000416	-0.003514
36992	14054686	-0.126484	9.865403	-0.016816	-0.005741	0.000356	-0.000365
36993	14054711	-0.130271	9.869564	-0.043161	-0.007161	-0.004008	-0.005254
36994	14054736	-0.123292	9.882623	-0.023073	-0.004311	-0.002459	0.001220
36995	14054761	-0.151015	9.885250	-0.031137	-0.000936	-0.002024	-0.003147
36996	14054786	-0.129772	9.866630	-0.037397	-0.006029	0.000922	-0.004850
36997	14054811	-0.129966	9.877759	-0.021161	-0.003496	-0.005941	0.000562
36998	14054836	-0.120524	9.891880	-0.037010	-0.003505	-0.003935	0.000119
36999	14054861	-0.116526	9.868878	-0.018778	-0.007600	-0.003818	0.000067
37000	14054886	-0.140044	9.880807	-0.011506	-0.001852	0.001009	0.002778
37001	14054911	-0.142850	9.875101	-0.012888	-0.010286	-0.001734	0.000407
37002	14054936	-0.120187	9.862844	-0.030203	-0.010145	0.002091	0.002867
37003	14054961	-0.121572	9.890829	-0.030735	-0.006118	-0.002442	-0.005381
37004	14054986	-0.109811	9.902261	-0.024083	-0.006808	-0.005102	-0.004624
37005	14055011	-0.127605	9.882170	-0.028315	-0.006902	0.000462	-0.000362
37006	14055036	-0.121866	9.865187	0.001366	-0.007030	-0.001872	-0.004286
37007	14055061	-0.143589	9.874720	-0.049802	-0.004545	0.002956	-0.001764
37008	14055086	-0.124754	9.897309	-0.053764	-0.002359	-0.003590	0.000438
37009	14055111	-0.148260	9.860783	-0.042144	-0.002563	0.002857	-0.004335
37010	14055136	-0.130430	9.885586	-0.036445	-0.007360	0.000779	0.000609
37011	14055161	-0.149896	9.872818	-0.024282	-0.011352	-0.002593	0.000151
37012	14055186	-0.139358	9.873469	-0.026812	-0.003235	-0.003992	0.003068
37013	14055211	-0.127440	9.869957	-0.035982	-0.007786	-0.000010	-0.001903
37014	14055236	-0.122206	9.840391	-0.052861	0.000647	-0.001740	-0.003341
37015	14055261	-0.143092	9.881962	-0.058426	-0.002748	-0.005408	0.001521
37016	14055286	-0.120876	9.841037	-0.031816	0.002186	-0.003448	-0.000148
37017	14055311	-0.138095	9.848410	-0.031668	0.000486	-0.000311	0.000130
37018	14055336	-0.144495	9.880705	-0.070411	-0.005987	-0.004244	-0.000261
37019	14055361	-0.176658	9.886996	-0.042452	-0.006838	-0.005874	-0.002696
37020	14055386	-0.117334	9.864926	-0.040387	-0.002441	-0.003083	-0.001033
37021	14055411	-0.141145	9.881151	-0.065691	-0.003485	-0.006644	0.000495
37022	14055436	-0.121555	9.857289	-0.040378	-0.000851	-0.002795	-0.003029
37023	14055461	-0.129685	9.850645	-0.015886	-0.002314	-0.003144	-0.002059
37024	14055486	-0.105485	9.870684	-0.034174	-0.006366	-0.004698	-0.001287
37025	14055511	-0.105194	9.833252	-0.006385	-0.004558	-0.001046	-0.000888
37026	14055536	-0.124367	9.847933	-0.020201	-0.004712	-0.006415	-0.000532
37027	14055561	-0.132076	9.854584	-0.026820	-0.008030	-0.002666	-0.003771
37028	14055586	-0.146565	9.870458	-0.021945	-0.009227	-0.000940	-0.000612
37029	14055611	-0.130480	9.884522	-0.028743	-0.008029	-0.006928	-0.002383
37030	14055636	-0.121824	9.842581	-0.040274	-0.009474	0.000603	-0.003563
37031	14055661	-0.134402	9.882294	-0.010592	-0.002143	-0.000428	-0.002624
37032	14055686	-0.147859	9.860097	-0.028736	-0.001891	-0.000231	-0.002551
37033	14055711	-0.117861	9.860752	-0.015439	-0.004014	-0.002201	-0.002624
37034	14055736	-0.131771	9.866367	-0.021641	-0.001496	-0.000548	-0.003009
37035	14055761	-0.138653	9.882296	-0.013925	-0.003330	0.000846	-0.000748
37036	14055786	-0.133160	9.865904	-0.023507	-0.003703	0.002584	-0.001571
37037	14055811	-0.113415	9.866808	-0.066786	-0.002398	-0.004834	-0.004058
37038	14055836	-0.132216	9.871222	-0.029174	-0.010984	-0.000060	-0.000542
37039	14055861	-0.146663	9.884298	-0.027720	-0.008762	-0.001636	-0.000490
37040	14055886	-0.132611	9.863226	-0.034097	-0.003470	-0.001170	-0.004931
37041	14055911	-0.148999	9.885059	-0.047898	-0.004080	-0.002013	-0.003327
37042	14055936	-0.151983	9.897735	-0.042120	-0.003535	0.003757	0.002028
37043	14055961	-0.131017	9.893314	-0.046057	-0.003491	-0.006597	-0.003356
37044	14055986	-0.151461	9.884274	-0.030149	-0.002114	-0.001134	-0.000954
37045	14056011	-0.093827	9.847103	-0.033819	-0.003432	-0.000325	-0.003518
37046	14056036	-0.144597	9.844987	-0.060816	-0.003383	0.004402	-0.002526
37047	14056061	-0.119102	9.858984	-0.055691	-0.005469	-0.000748	-0.003384
37048	14056086	-0.114612	9.845710	-0.052806	-0.005488	0.000231	-0.001141
37049	14056111	-0.120784	9.860800	-0.021214	-0.002837	-0.002904	-0.004622
37050	14056136	-0.130576	9.858255	-0.048438	-0.003727	-0.001366	-0.005315
37051	14056161	-0.119472	9.854674	-0.054332	0.000407	-0.005868	0.000744
37052	14056186	-0.118689	9.856743	-0.033698	-0.001816	0.001717	0.000083
37053	14056211	-0.112921	9.870070	-0.062474	-0.002056	-0.003199	-0.000456
37054	14056236	-0.113078	9.871109	-0.037965	-0.005890	-0.002807	0.004749
37055	14056261	-0.127029	9.870296	-0.026394	-0.005560	0.002486	-0.002657
37056	14056286	-0.110854	9.874945	-0.038023	-0.005296	0.001770	-0.006580
37057	14056311	-0.126529	9.878004	-0.034527	-0.006132	0.000672	0.001439
37058	14056336	-0.132522	9.872717	-0.065750	-0.003335	-0.003105	-0.001541
37059	14056361	-0.137130	9.872399	-0.016815	-0.000985	0.001529	-0.003514
37060	14056386	-0.129092	9.844206	-0.028740	-0.007081	0.001679	-0.005096
37061	14056411	-0.154134	9.875910	-0.044045	-0.002018	-0.002298	-0.002243
37062	14056436	-0.146126	9.862513	0.001430	-0.000949	0.000498	-0.001660
37063	14056461	-0.152847	9.881836	-0.027244	-0.003926	-0.000328	0.000598
37064	14056486	-0.133801	9.876339	-0.023920	-0.009872	-0.001149	-0.003888
37065	14056511	-0.148986	9.872275	-0.019091	-0.007735	-0.001621	-0.001137
37066	14056536	-0.151133	9.856245	-0.026831	-0.000596	-0.000927	-0.006026
37067	14056561	-0.110699	9.864437	-0.034156	-0.004523	0.004119	-0.000539
37068	14056586	-0.124961	9.862359	-0.033071	-0.010292	0.000207	-0.001700
37069	14056611	-0.140301	9.874122	-0.039271	-0.003254	0.000265	-0.002804
37070	14056636	-0.158806	9.875000	-0.049736	-0.005226	0.000171	-0.000294
37071	14056661	-0.127623	9.842258	-0.024440	-0.007689	0.000831	-0.001128
37072	14056686	-0.129166	9.875648	-0.005791	-0.006320	-0.004451	-0.005901
37073	14056711	-0.124376	9.858143	-0.036467	-0.006965	-0.001799	-0.000431
37074	14056736	-0.117896	9.869933	-0.026995	-0.001928	0.001399	0.002261
37075	14056761	-0.128431	9.870804	-0.029692	-0.007081	-0.002064	-0.001723
37076	14056786	-0.141621	9.880150	-0.062791	-0.002882	-0.007410	0.000745
37077	14056811	-0.108057	9.878641	-0.029879	-0.004146	0.002314	-0.001451
37078	14056836	-0.108183	9.862407	-0.053790	-0.006370	-0.002506	-0.002430
37079	14056861	-0.124094	9.871876	-0.034522	-0.008495	0.000243	-0.000615
37080	14056886	-0.142149	9.867376	-0.034016	-0.006717	-0.003549	-0.000377
37081	14056911	-0.120703	9.871096	-0.042705	-0.006098	-0.000623	-0.000882
37082	14056936	-0.139984	9.885231	-0.051358	0.001083	0.000393	-0.006863
37083	14056961	-0.108374	9.870720	-0.039435	-0.004557	-0.001119	-0.002681
37084	14056986	-0.140123	9.888701	-0.030619	-0.009646	-0.000048	-0.004524
37085	14057011	-0.119722	9.821558	-0.028837	-0.005086	0.001527	-0.001703
37086	14057036	-0.117740	9.870905	-0.058653	0.000052	0.001356	-0.000122
37087	14057061	-0.151251	9.881295	-0.052568	-0.010510	0.001368	0.001264
37088	14057086	-0.174278	9.887481	-0.040508	-0.009274	-0.005852	-0.003330
37089	14057111	-0.132356	9.885573	-0.036933	-0.002038	-0.003594	-0.000395
37090	14057136	-0.145642	9.876822	-0.033973	-0.004594	-0.004095	-0.004235
37091	14057161	-0.142778	9.841852	-0.041202	-0.005369	-0.003783	-0.002694
37092	14057186	-0.136013	9.883894	-0.054594	-0.009763	-0.004369	0.000714
37093	14057211	-0.151831	9.870155	-0.007137	-0.004278	0.000837	0.002904
37094	14057236	-0.174657	9.877401	-0.032894	-0.003907	-0.001357	-0.001332
37095	14057261	-0.120536	9.856838	-0.041296	-0.004768	0.001858	0.000092
37096	14057286	-0.147925	9.865189	-0.019601	-0.003697	-0.001937	-0.001146
37097	14057311	-0.134052	9.901446	-0.022005	-0.009140	-0.003454	0.002128
37098	14057336	-0.126894	9.901577	-0.025015	-0.003858	-0.002712	0.000644
37099	14057361	-0.148404	9.867750	-0.032478	-0.007780	0.001603	-0.003171
37100	14057386	-0.158520	9.886003	-0.055917	-0.007655	-0.000274	-0.004402
37101	14057411	-0.118565	9.887199	-0.039365	-0.007120	-0.001034	-0.002614
37102	14057436	-0.140924	9.866892	-0.001449	-0.003093	-0.000831	-0.002684
37103	14057461	-0.110479	9.847826	-0.033146	-0.007293	0.000520	-0.000297
37104	14057486	-0.124312	9.869038	-0.003912	-0.004019	-0.000010	-0.003636
37105	14057511	-0.123283	9.888615	-0.042206	-0.008921	-0.000539	0.000152
37106	14057536	-0.135993	9.877552	-0.043587	-0.009295	0.003529	0.001460
37107	14057561	-0.131088	9.869196	-0.050835	-0.006330	-0.001594	-0.000435
37108	14057586	-0.118016	9.886396	-0.048539	-0.002520	-0.000690	-0.001656
37109	14057611	-0.126230	9.848982	-0.028837	-0.001864	-0.003263	-0.002123
37110	14057636	-0.152863	9.884262	-0.030558	-0.008921	-0.002611	-0.000498
37111	14057661	-0.135511	9.864550	-0.030167	-0.007397	-0.002334	-0.002874
37112	14057686	-0.118373	9.845972	-0.072950	-0.004320	-0.002798	-0.005707
37113	14057711	-0.127218	9.848446	-0.024885	-0.010926	0.002268	-0.000660
37114	14057736	-0.107124	9.888781	-0.039905	-0.005576	0.001197	-0.000361
37115	14057761	-0.113479	9.860534	-0.029379	-0.002915	-0.000045	0.001545
37116	14057786	-0.134265	9.880102	-0.022010	-0.008768	-0.001375	-0.000237
37117	14057811	-0.127446	9.874648	-0.032674	-0.002953	0.001244	0.000022
37118	14057836	-0.133903	9.868771	-0.057096	-0.000875	-0.003760	0.001656
37119	14057861	-0.158268	9.891975	-0.011388	-0.003245	0.000533	0.001690
37120	14057886	-0.126394	9.868288	-0.050397	-0.003088	0.001107	-0.001775
37121	14057911	-0.140830	9.880775	-0.040690	-0.006539	-0.003149	-0.000058
37122	14057936	-0.117649	9.842841	-0.023147	-0.001127	-0.000156	-0.003459
37123	14057961	-0.135855	9.872568	-0.058495	-0.003143	-0.002964	0.000574
37124	14057986	-0.114929	9.874673	-0.055173	-0.010221	-0.002046	0.001238
37125	14058011	-0.140435	9.876669	-0.020593	-0.004832	-0.000085	0.000468
37126	14058036	-0.104010	9.864068	-0.035215	-0.002065	-0.006752	0.001003
37127	14058061	-0.116922	9.868563	-0.028420	-0.000203	-0.000840	0.000192
37128	14058086	-0.140094	9.848255	-0.023486	-0.003101	0.001818	-0.000229
37129	14058111	-0.129971	9.850616	-0.045519	-0.007547	0.000578	-0.002286
37130	14058136	-0.135783	9.878532	-0.013892	-0.004645	-0.000086	-0.002551
37131	14058161	-0.141599	9.878705	0.001536	-0.009538	-0.001596	-0.003698
37132	14058186	-0.138484	9.870582	-0.023452	-0.006114	-0.000435	-0.004537
37133	14058211	-0.120628	9.863390	-0.035514	-0.008607	-0.002344	0.000724
37134	14058236	-0.138681	9.850298	-0.031150	-0.005285	-0.000426	-0.005053
37135	14058261	-0.137714	9.870635	0.005311	-0.005488	-0.004305	-0.005201
37136	14058286	-0.120949	9.876059	-0.025943	-0.004461	-0.000152	-0.005503
37137	14058311	-0.126807	9.859001	-0.032639	-0.005062	-0.003317	-0.000641
37138	14058336	-0.120018	9.874450	-0.013063	-0.002956	-0.003158	-0.002824
37139	14058361	-0.143714	9.866600	-0.015285	-0.003794	0.001156	-0.004657
37140	14058386	-0.135468	9.863978	-0.024465	-0.004727	0.000761	0.001246
37141	14058411	-0.112516	9.858674	-0.030795	-0.006647	0.000529	0.001180
37142	14058436	-0.153590	9.862828	-0.025328	-0.003052	0.000270	-0.001013
37143	14058461	-0.115045	9.866254	-0.031274	-0.006297	-0.000958	-0.004923
37144	14058486	-0.119537	9.854065	-0.045131	-0.005335	-0.002874	-0.002882
37145	14058511	-0.123895	9.856336	-0.042251	-0.004390	-0.006542	-0.002906
37146	14058536	-0.128054	9.873497	-0.020197	-0.004399	-0.003894	-0.001161
37147	14058561	-0.148473	9.873025	-0.036426	-0.000191	0.000508	-0.004992
37148	14058586	-0.128979	9.886977	-0.033525	-0.009237	-0.002284	0.004573
37149	14058611	-0.152689	9.874918	-0.039679	-0.007705	-0.000328	0.001441
37150	14058636	-0.130928	9.878672	-0.019217	-0.005232	-0.004034	-0.002180
37151	14058661	-0.122088	9.836139	-0.054160	-0.006928	0.001307	-0.000226
37152	14058686	-0.110839	9.838885	-0.037984	-0.006618	-0.000574	-0.002103
37153	14058711	-0.143128	9.879732	-0.067989	-0.008792	0.001195	-0.003107
37154	14058736	-0.129364	9.881161	-0.056143	-0.003339	0.000970	-0.003318
37155	14058761	-0.177726	9.897984	-0.047683	-0.008129	-0.005639	-0.003719
37156	14058786	-0.132722	9.880476	-0.045581	-0.002572	-0.001018	-0.002427
37157	14058811	-0.123196	9.844643	-0.052252	-0.008386	0.000624	-0.003372
37158	14058836	-0.138700	9.865220	-0.045477	-0.008996	-0.000218	0.000483
37159	14058861	-0.155951	9.894530	-0.021968	-0.004202	-0.000080	-0.003448
37160	14058886	-0.151123	9.892241	-0.022899	-0.007983	-0.002283	-0.004408
37161	14058911	-0.126390	9.872502	-0.047016	-0.005035	-0.003897	0.001279
37162	14058936	-0.116279	9.861242	-0.046604	-0.004412	0.000440	-0.001773
37163	14058961	-0.122805	9.880310	-0.026938	-0.005162	-0.001699	0.001867
37164	14058986	-0.098742	9.865069	-0.034215	-0.005472	-0.002350	0.001161
37165	14059011	-0.150681	9.871149	-0.039765	-0.000338	-0.002517	0.001210
37166	14059036	-0.160436	9.909540	-0.014738	-0.003941	0.000058	0.000535
37167	14059061	-0.154775	9.874905	-0.009508	-0.003617	0.002138	0.000992
37168	14059086	-0.138581	9.889351	-0.040761	-0.004843	-0.006293	-0.002642
37169	14059111	-0.131218	9.866846	-0.021577	-0.005080	-0.000338	0.001295
37170	14059136	-0.128236	9.848195	-0.009616	-0.006674	-0.002636	0.001100
37171	14059161	-0.133091	9.896276	-0.023956	-0.007744	0.004706	-0.002642
37172	14059186	-0.143020	9.886424	-0.008576	-0.004131	-0.000595	-0.004537
37173	14059211	-0.131531	9.882360	-0.012429	-0.009637	0.003834	-0.001042
37174	14059236	-0.106106	9.847963	-0.038964	-0.006247	-0.002170	0.000839
37175	14059261	-0.114611	9.860253	-0.011132	-0.004691	0.001207	-0.001839
37176	14059286	-0.126543	9.889141	-0.048928	-0.007002	-0.004183	0.004043
37177	14059311	-0.138688	9.878508	-0.014344	-0.007303	-0.003566	-0.006729
37178	14059336	-0.137051	9.879873	-0.040767	-0.004169	-0.003439	-0.005388
37179	14059361	-0.139885	9.884143	-0.043138	-0.004461	-0.001813	0.001031
37180	14059386	-0.136585	9.844698	-0.035918	-0.006300	-0.000232	0.002390
37181	14059411	-0.132253	9.879422	-0.038395	-0.003920	-0.002976	-0.000577
37182	14059436	-0.120092	9.872474	-0.069989	-0.009571	-0.002493	-0.001714
37183	14059461	-0.123274	9.895116	-0.064347	-0.000815	0.000376	-0.000954
37184	14059486	-0.140500	9.902489	-0.063837	0.001967	-0.000814	-0.001675
37185	14059511	-0.156575	9.888494	-0.061210	-0.008594	-0.001064	-0.003822
37186	14059536	-0.140622	9.881212	-0.069041	-0.002784	-0.004175	0.002560
37187	14059561	-0.145463	9.877300	-0.065642	-0.005279	-0.002620	-0.003523
37188	14059586	-0.112479	9.868032	-0.053326	-0.004953	0.001599	0.001499
37189	14059611	-0.135793	9.864897	-0.053220	-0.005138	0.001273	0.000410
37190	14059636	-0.120421	9.863657	-0.083433	-0.008076	0.002824	-0.004707
37191	14059661	-0.150246	9.880994	-0.062744	-0.004654	-0.000018	-0.002666
37192	14059686	-0.161241	9.877254	-0.044461	-0.003436	-0.005738	0.002487
37193	14059711	-0.128655	9.872763	-0.002435	-0.007059	-0.003105	-0.005251
37194	14059736	-0.149517	9.878461	-0.020100	-0.004031	-0.001429	-0.002107
37195	14059761	-0.101951	9.847408	-0.029417	-0.003093	0.003433	-0.001833
37196	14059786	-0.116344	9.861117	-0.037969	-0.003652	0.005105	-0.001304
37197	14059811	-0.122629	9.858788	-0.015343	-0.007492	0.000967	-0.000161
37198	14059836	-0.139356	9.856499	-0.003315	-0.009666	0.000861	-0.000991
37199	14059861	-0.131155	9.879308	0.000936	-0.005817	0.002344	-0.003879
37200	14059886	-0.131824	9.871984	-0.016813	-0.004168	-0.001173	-0.001529
37201	14059911	-0.132527	9.847106	-0.003833	-0.005768	-0.000677	0.003289
37202	14059936	-0.120016	9.849991	-0.027850	-0.005631	-0.007199	0.003573
37203	14059961	-0.137203	9.855618	-0.036838	-0.009805	-0.000879	0.001243
37204	14059986	-0.139182	9.852074	-0.023975	-0.003308	-0.000063	-0.003581
37205	14060011	-0.135065	9.854908	0.011967	-0.003359	0.002407	0.004071
37206	14060036	-0.145151	9.893291	0.006743	-0.003873	-0.002468	-0.003460
37207	14060061	-0.151596	9.880954	0.001012	-0.002372	0.000992	-0.001329
37208	14060086	-0.129643	9.890697	-0.028778	-0.005905	-0.005022	-0.003724
37209	14060111	-0.136467	9.897969	-0.013368	-0.009638	-0.004372	-0.002493
37210	14060136	-0.138859	9.876627	-0.046973	-0.001948	-0.002301	-0.000134
37211	14060161	-0.133894	9.858756	-0.052704	-0.006951	-0.000653	-0.008124
37212	14060186	-0.129318	9.878896	-0.063339	-0.001603	0.002542	-0.005303
37213	14060211	-0.147973	9.856941	-0.069963	-0.004648	-0.000149	-0.001392
37214	14060236	-0.122913	9.865631	-0.059945	-0.008175	0.000113	0.000404
37215	14060261	-0.139860	9.881942	-0.053695	-0.001740	-0.003207	-0.003025
37216	14060286	-0.147771	9.863699	-0.046415	-0.006744	-0.000575	-0.002867
37217	14060311	-0.150766	9.869623	-0.033017	-0.005165	-0.004031	-0.001028
37218	14060336	-0.128136	9.855848	-0.044615	-0.003810	-0.002393	-0.001603
37219	14060361	-0.141059	9.875030	-0.068142	0.001802	-0.001585	-0.000899
37220	14060386	-0.119202	9.871215	-0.048979	-0.003292	-0.000572	0.000075
37221	14060411	-0.124243	9.881771	-0.030719	-0.007005	-0.002582	-0.001338
37222	14060436	-0.137385	9.872341	-0.044561	-0.005747	-0.001721	-0.000823
37223	14060461	-0.139376	9.884469	-0.064253	-0.002401	-0.002506	-0.002755
37224	14060486	-0.128509	9.848822	-0.050847	-0.003947	-0.000137	-0.002229
37225	14060511	-0.140002	9.891862	-0.051191	-0.009185	-0.006759	-0.003916
37226	14060536	-0.148205	9.862397	-0.054573	-0.009166	-0.003533	-0.006658
37227	14060561	-0.128635	9.857862	-0.052775	-0.003542	-0.002913	-0.004175
37228	14060586	-0.143574	9.867870	-0.036882	-0.004838	-0.004478	-0.001352
37229	14060611	-0.153289	9.892513	-0.043063	-0.005609	0.000425	0.004193
37230	14060636	-0.135554	9.877510	-0.040708	-0.006092	-0.002557	0.003086
37231	14060661	-0.153778	9.880013	-0.032483	-0.006834	0.002201	-0.001374
37232	14060686	-0.110218	9.862842	-0.022691	-0.003926	0.001745	0.002779
37233	14060711	-0.143620	9.859920	-0.013359	-0.005016	0.001529	-0.001575
37234	14060736	-0.133394	9.881942	-0.017265	-0.006342	-0.001279	-0.002615
37235	14060761	-0.129899	9.857169	-0.007580	-0.012445	0.003126	-0.007838
37236	14060786	-0.138900	9.871090	-0.026783	-0.008185	0.004834	0.001079
37237	14060811	-0.116414	9.822470	-0.023532	-0.007272	-0.000198	-0.001711
37238	14060836	-0.145669	9.862694	-0.010044	-0.002378	-0.001542	-0.007561
37239	14060861	-0.117244	9.855742	-0.028891	-0.004272	-0.005950	0.000691
37240	14060886	-0.119771	9.863228	-0.024578	-0.002751	-0.001214	-0.000314
37241	14060911	-0.122379	9.868497	0.002310	-0.004512	0.001925	-0.001898
37242	14060936	-0.126208	9.874008	-0.020128	-0.008209	-0.001451	-0.007036
37243	14060961	-0.151422	9.876542	-0.020520	-0.006132	0.000079	-0.003952
37244	14060986	-0.119932	9.899813	0.004216	-0.003453	-0.001356	-0.001279
37245	14061011	-0.125405	9.861927	-0.036464	-0.007558	-0.003368	-0.002749
37246	14061036	-0.139759	9.887402	-0.007127	-0.008483	-0.002353	-0.003770
37247	14061061	-0.142348	9.880090	-0.028246	-0.004774	-0.004283	-0.000964
37248	14061086	-0.116467	9.874476	-0.043221	-0.007409	0.000192	-0.000934
37249	14061111	-0.124573	9.836795	-0.037446	-0.003000	-0.003347	0.002941
37250	14061136	-0.129940	9.884326	-0.046523	-0.005928	-0.004309	-0.002952
37251	14061161	-0.143996	9.879745	-0.068995	-0.004686	-0.003053	-0.000575
37252	14061186	-0.132645	9.886445	-0.063755	-0.004973	-0.001958	0.000715
37253	14061211	-0.143219	9.884739	-0.053661	-0.004652	0.002243	-0.001507
37254	14061236	-0.142819	9.887500	-0.047858	-0.006953	0.001940	-0.001246
37255	14061261	-0.153672	9.917241	-0.046414	-0.006683	-0.002578	-0.003070
37256	14061286	-0.140284	9.890683	-0.067566	-0.006790	-0.001016	0.001749
37257	14061311	-0.150395	9.887488	-0.053126	-0.005782	-0.000687	-0.001967
37258	14061336	-0.146515	9.887149	-0.058423	-0.006734	-0.005092	-0.000259
37259	14061361	-0.127648	9.850560	-0.039337	-0.004403	-0.004025	-0.002827
37260	14061386	-0.144342	9.859192	-0.058904	-0.006364	-0.004968	-0.005198
37261	14061411	-0.137013	9.876615	-0.045010	-0.007796	-0.006089	-0.003086
37262	14061436	-0.139346	9.873640	-0.037865	-0.005442	0.003004	-0.001314
37263	14061461	-0.118870	9.867591	-0.028797	-0.006479	0.003178	-0.001949
37264	14061486	-0.114613	9.878147	-0.033612	-0.008667	0.001858	0.001961
37265	14061511	-0.115280	9.886527	-0.023648	-0.002255	-0.002883	-0.000905
37266	14061536	-0.133963	9.890391	-0.012919	-0.004715	0.000501	0.002588
37267	14061561	-0.121663	9.885568	0.003295	-0.007693	0.001091	-0.001378
37268	14061586	-0.118995	9.876019	-0.022619	-0.006299	-0.002506	-0.000957
37269	14061611	-0.137766	9.888971	-0.015395	-0.000645	-0.007376	-0.000799
37270	14061636	-0.124420	9.855098	-0.023542	-0.004430	-0.000657	0.000207
37271	14061661	-0.132733	9.868781	-0.024918	-0.006099	-0.005089	-0.002638
37272	14061686	-0.130528	9.858692	-0.046550	-0.004856	-0.001633	-0.000696
37273	14061711	-0.125813	9.866881	-0.051320	-0.005320	0.001334	0.001694
37274	14061736	-0.133281	9.849731	-0.051786	-0.003730	-0.005308	-0.005271
37275	14061761	-0.132508	9.859996	-0.039789	-0.004914	-0.003970	-0.002696
37276	14061786	-0.129918	9.875552	-0.031133	-0.006953	0.001939	-0.004010
37277	14061811	-0.128278	9.856957	-0.024395	-0.011668	0.001210	-0.000598
37278	14061836	-0.139931	9.887033	-0.045548	-0.003919	-0.000712	-0.000115
37279	14061861	-0.126733	9.889523	-0.042272	-0.004293	-0.003774	-0.007764
37280	14061886	-0.140800	9.880956	-0.052214	-0.005721	-0.002818	-0.001980
37281	14061911	-0.142243	9.882630	-0.039228	-0.007410	0.000654	0.003044
37282	14061936	-0.144937	9.862989	-0.029212	-0.005317	-0.001056	0.001617
37283	14061961	-0.123984	9.853278	-0.028366	-0.002940	0.002266	-0.005107
37284	14061986	-0.143867	9.852759	-0.041697	-0.001128	0.003985	-0.003366
37285	14062011	-0.136031	9.868811	-0.029757	-0.001626	0.001453	-0.002481
37286	14062036	-0.139154	9.842910	-0.076679	-0.004959	-0.000015	0.001884
37287	14062061	-0.118713	9.864532	-0.046107	-0.003679	-0.006720	-0.000857
37288	14062086	-0.136198	9.887028	-0.042159	-0.007749	0.002831	-0.002971
37289	14062111	-0.151568	9.891908	-0.032544	-0.002369	-0.001736	-0.005768
37290	14062136	-0.150771	9.912854	-0.036824	-0.007883	-0.002851	0.001423
37291	14062161	-0.127377	9.872584	-0.052316	-0.003046	-0.004521	-0.004628
37292	14062186	-0.140044	9.893225	-0.047472	-0.002453	-0.005093	-0.005400
37293	14062211	-0.148800	9.863954	-0.032542	-0.002465	-0.002505	-0.003016
37294	14062236	-0.142882	9.886312	-0.032133	-0.000243	0.000581	0.000590
37295	14062261	-0.127818	9.866261	-0.042310	0.002071	-0.001834	-0.001292
37296	14062286	-0.144220	9.880614	-0.032627	-0.001498	0.001849	-0.000045
37297	14062311	-0.123483	9.848414	-0.019758	-0.000922	-0.007136	-0.005805
37298	14062336	-0.141667	9.864968	-0.031600	-0.005680	0.000352	-0.001137
37299	14062361	-0.127857	9.864092	-0.025481	-0.003093	-0.002700	-0.000450
37300	14062386	-0.145193	9.876120	-0.019095	-0.006658	0.003119	-0.000346
37301	14062411	-0.125517	9.897065	-0.007720	-0.006728	0.001374	0.002339
37302	14062436	-0.111523	9.887415	-0.017398	-0.002441	0.001377	0.000854
37303	14062461	-0.143147	9.871249	-0.040218	-0.005004	0.003074	-0.002912
37304	14062486	-0.127521	9.839582	-0.035016	-0.007814	-0.001301	-0.002293
37305	14062511	-0.148768	9.867960	-0.045905	-0.007854	0.002183	-0.002204
37306	14062536	-0.129785	9.863955	-0.017790	-0.003877	-0.004007	0.002113
37307	14062561	-0.117908	9.859376	-0.018728	-0.008249	0.002302	-0.005478
37308	14062586	-0.118692	9.866611	-0.057614	-0.002651	-0.000505	-0.003199
37309	14062611	-0.116836	9.864516	-0.043627	-0.011972	-0.001575	-0.001894
37310	14062636	-0.132292	9.880418	-0.040781	-0.003844	-0.003238	-0.002119
37311	14062661	-0.121738	9.879601	-0.041316	-0.004694	0.003669	-0.000538
37312	14062686	-0.146043	9.877384	-0.040712	-0.004965	-0.001965	0.000268
37313	14062711	-0.131236	9.862041	-0.017769	-0.002171	0.000802	0.001042
37314	14062736	-0.156779	9.899008	-0.036795	-0.007193	-0.000314	0.001632
37315	14062761	-0.125636	9.881991	-0.045548	-0.007558	0.000700	-0.003180
37316	14062786	-0.148065	9.892257	-0.052665	-0.005846	-0.000817	-0.001968
37317	14062811	-0.119069	9.852970	-0.036041	-0.003926	-0.002457	0.001350
37318	14062836	-0.141349	9.882670	-0.041180	-0.005817	-0.001331	0.001357
37319	14062861	-0.132667	9.892721	-0.070948	-0.006947	-0.002378	0.000781
37320	14062886	-0.142580	9.871971	-0.055581	-0.006789	0.000648	-0.003372
37321	14062911	-0.134239	9.852147	-0.056574	-0.004214	0.000244	-0.001585
37322	14062936	-0.158137	9.879814	-0.022981	-0.000520	-0.005056	-0.002389
37323	14062961	-0.125808	9.857410	-0.051789	-0.006862	0.002775	-0.004645
37324	14062986	-0.122711	9.875210	-0.034492	-0.012140	0.000177	0.000107
37325	14063011	-0.129828	9.879631	-0.049890	-0.005788	0.003776	-0.001113
37326	14063036	-0.127536	9.890177	-0.055101	-0.010775	0.001425	0.000493
37327	14063061	-0.122452	9.865565	-0.055138	-0.008321	0.000758	0.000481
37328	14063086	-0.102829	9.853724	-0.040873	-0.010052	-0.000879	0.004637
37329	14063111	-0.135115	9.876466	-0.033599	-0.002646	-0.000368	0.002058
37330	14063136	-0.136754	9.857523	-0.037375	-0.004749	0.003406	0.001064
37331	14063161	-0.128817	9.832032	-0.039308	-0.008048	0.000310	0.000730
37332	14063186	-0.138491	9.872913	-0.020684	0.000779	-0.001606	-0.000960
37333	14063211	-0.129106	9.847921	-0.023507	-0.005859	-0.000167	-0.000109
37334	14063236	-0.127321	9.862399	-0.037387	-0.008197	0.007090	-0.002436
37335	14063261	-0.123202	9.859127	-0.006739	-0.004941	0.001007	-0.001900
37336	14063286	-0.128966	9.884281	-0.043144	-0.008307	-0.003834	-0.000443
37337	14063311	-0.126423	9.862643	-0.022575	-0.007355	-0.001226	0.000407
37338	14063336	-0.141763	9.891987	0.001511	-0.008053	-0.001697	-0.001907
37339	14063361	-0.135014	9.859699	-0.022997	-0.006954	-0.000258	-0.001839
37340	14063386	-0.098668	9.858030	-0.039559	0.000031	-0.004198	0.000562
37341	14063411	-0.117655	9.880161	-0.013026	-0.004259	-0.000140	-0.000054
37342	14063436	-0.136668	9.879743	-0.031638	-0.004342	-0.000024	-0.005814
37343	14063461	-0.135054	9.877509	-0.039334	-0.005709	-0.002743	0.001161
37344	14063486	-0.143098	9.876297	-0.059906	-0.004698	-0.000608	-0.002876
37345	14063511	-0.132084	9.869759	-0.057572	-0.001211	0.000225	-0.005572
37346	14063536	-0.128001	9.883960	-0.052681	-0.011958	0.000365	-0.001441
37347	14063561	-0.125272	9.869988	-0.067170	-0.005980	0.001775	0.000666
37348	14063586	-0.138043	9.873909	-0.023017	-0.001116	0.003856	-0.002147
37349	14063611	-0.145810	9.854918	-0.029175	-0.006743	-0.004897	-0.000900
37350	14063636	-0.164620	9.876220	-0.041056	-0.007167	-0.003554	-0.002556
37351	14063661	-0.126365	9.877069	-0.065744	-0.004798	-0.003579	-0.002050
37352	14063686	-0.121351	9.897621	-0.070961	-0.011002	-0.001685	-0.002220
37353	14063711	-0.135627	9.873568	-0.029707	-0.003102	-0.002712	-0.004943
37354	14063736	-0.121279	9.863727	-0.026403	-0.008519	-0.001518	-0.006329
37355	14063761	-0.134489	9.868179	-0.049395	-0.001372	-0.002809	-0.004692
37356	14063786	-0.118218	9.848015	-0.020191	-0.005674	-0.000235	-0.004537
37357	14063811	-0.139026	9.876291	-0.025426	-0.002430	-0.001405	-0.002563
37358	14063836	-0.121806	9.868865	-0.022146	-0.004715	-0.000152	-0.002804
37359	14063861	-0.131325	9.874571	-0.029753	-0.003147	-0.005038	-0.000399
37360	14063886	-0.114028	9.864730	-0.025010	-0.006288	-0.000493	0.002262
37361	14063911	-0.129770	9.872961	-0.048431	-0.004756	0.001465	-0.000422
37362	14063936	-0.139532	9.889327	-0.040272	-0.003712	-0.001426	-0.003009
37363	14063961	-0.157515	9.890183	-0.049193	-0.010824	0.001368	0.002737
37364	14063986	-0.137216	9.881483	-0.022050	-0.005405	-0.002627	-0.004810
37365	14064011	-0.152706	9.868515	-0.024341	-0.007029	-0.001551	-0.000432
37366	14064036	-0.133940	9.850721	-0.024409	-0.008950	0.002030	-0.004959
37367	14064061	-0.147822	9.853838	-0.021962	-0.004487	0.002888	-0.003496
37368	14064086	-0.109287	9.862906	-0.025467	-0.009021	0.000486	-0.001763
37369	14064111	-0.161000	9.891521	-0.045910	-0.004902	-0.002359	-0.004420
37370	14064136	-0.144167	9.874897	-0.031103	-0.005458	-0.003073	-0.002944
37371	14064161	-0.128320	9.865694	-0.036468	-0.003046	-0.002514	-0.004233
37372	14064186	-0.128261	9.857965	-0.028347	-0.003611	-0.004719	-0.001103
37373	14064211	-0.111227	9.868622	-0.028848	-0.006576	0.002471	0.001252
37374	14064236	-0.139354	9.877509	-0.043624	-0.003690	0.004265	0.000294
37375	14064261	-0.139971	9.879684	-0.030092	-0.009975	-0.001924	-0.003441
37376	14064286	-0.158227	9.865129	-0.055495	-0.005923	-0.000563	-0.002927
37377	14064311	-0.139286	9.866566	-0.040664	-0.007907	-0.000471	-0.004658
37378	14064336	-0.160656	9.888225	-0.015674	-0.006324	-0.001928	-0.003770
37379	14064361	-0.136934	9.856611	-0.009112	-0.004685	0.001405	0.001054
37380	14064386	-0.122669	9.858137	-0.003429	-0.004710	-0.004150	0.001338
37381	14064411	-0.135285	9.843016	-0.018211	-0.004233	-0.003308	-0.001219
37382	14064436	-0.126035	9.876392	-0.052320	-0.003658	0.000702	-0.004405
37383	14064461	-0.128434	9.873782	-0.038425	-0.003220	-0.000840	-0.003518
37384	14064486	-0.146355	9.869822	-0.043096	-0.004666	-0.005306	0.003582
37385	14064511	-0.133734	9.868262	-0.023538	-0.001976	0.002281	-0.004792
37386	14064536	-0.128138	9.884058	-0.027895	-0.002396	-0.002566	-0.003144
37387	14064561	-0.113762	9.850449	-0.051838	-0.007473	-0.004208	-0.003397
37388	14064586	-0.131914	9.885071	-0.035045	-0.004920	-0.001775	-0.004226
37389	14064611	-0.141376	9.888924	-0.046536	-0.002269	-0.002430	-0.000446
37390	14064636	-0.137616	9.883057	-0.032142	-0.002037	-0.001588	-0.002435
37391	14064661	-0.158554	9.889150	-0.043979	-0.005184	-0.001384	-0.001203
37392	14064686	-0.152593	9.886375	-0.075106	-0.009757	0.001898	0.001968
37393	14064711	-0.128947	9.879012	-0.039294	-0.009358	0.003193	-0.001620
37394	14064736	-0.124991	9.872943	-0.043228	-0.003462	-0.003289	-0.000006
37395	14064761	-0.136551	9.880346	-0.039804	-0.003397	0.001040	-0.000107
37396	14064786	-0.131136	9.898753	-0.029199	-0.011307	-0.004269	-0.000691
37397	14064811	-0.111673	9.861851	-0.020263	-0.005403	-0.000419	-0.000626
37398	14064836	-0.140305	9.883314	-0.051297	-0.003071	-0.001280	0.001159
37399	14064861	-0.155788	9.881857	-0.030121	-0.004262	0.001398	-0.007921
37400	14064886	-0.140209	9.901587	-0.035929	-0.004365	-0.000988	-0.003642
37401	14064911	-0.141803	9.879179	-0.030669	-0.005408	-0.001962	0.002515
37402	14064936	-0.131827	9.881693	-0.032184	-0.002044	0.001134	0.002201
37403	14064961	-0.124140	9.875244	-0.037517	0.001778	-0.000416	0.001404
37404	14064986	-0.107615	9.847878	-0.034269	0.002493	0.000875	-0.003845
37405	14065011	-0.118194	9.843522	-0.006330	-0.003397	-0.000897	0.001033
37406	14065036	-0.107510	9.863085	-0.004011	-0.002657	-0.000371	-0.000760
37407	14065061	-0.126012	9.858650	-0.008641	-0.008751	-0.001967	-0.001265
37408	14065086	-0.103721	9.847869	-0.030801	-0.006576	-0.005269	0.008136
37409	14065111	-0.123299	9.884663	-0.032715	-0.000516	-0.004847	0.002863
37410	14065136	-0.141940	9.848863	-0.033574	-0.001276	0.000490	-0.000885
37411	14065161	-0.146519	9.870023	-0.025355	-0.005263	-0.004941	-0.000200
37412	14065186	-0.138264	9.858376	-0.031679	-0.000444	-0.005697	-0.001627
37413	14065211	-0.130669	9.854542	-0.022994	-0.007343	0.001863	-0.005220
37414	14065236	-0.129554	9.857823	-0.050801	-0.008176	-0.003830	-0.000119
37415	14065261	-0.144616	9.866726	-0.024857	-0.007625	-0.003305	-0.002047
37416	14065286	-0.147894	9.863794	-0.021962	-0.007080	-0.002126	-0.001334
37417	14065311	-0.114177	9.831964	-0.023063	-0.007439	-0.000976	-0.002617
37418	14065336	-0.140868	9.875446	-0.034053	-0.004315	0.001468	-0.001645
37419	14065361	-0.135095	9.872268	-0.037860	-0.004394	0.001656	-0.005357
37420	14065386	-0.140177	9.886996	-0.012389	-0.007610	0.002509	-0.003807
37421	14065411	-0.119787	9.882237	-0.057588	-0.006881	0.002210	0.002411
37422	14065436	-0.121941	9.892922	-0.043718	-0.005147	-0.000420	-0.001526
37423	14065461	-0.097058	9.846276	-0.044796	-0.002302	0.000536	-0.000884
37424	14065486	-0.134024	9.876919	-0.061335	-0.004788	0.002305	-0.001828
37425	14065511	-0.107493	9.853077	-0.064398	-0.003532	-0.002909	-0.000069
37426	14065536	-0.118837	9.881409	-0.063862	-0.004737	-0.001448	-0.002044
37427	14065561	-0.128446	9.883857	-0.046127	0.000247	-0.002837	0.001527
37428	14065586	-0.129974	9.882447	-0.047536	-0.000861	-0.002939	-0.007957
37429	14065611	-0.152618	9.872339	-0.056974	-0.004686	0.000747	-0.005555
37430	14065636	-0.138939	9.886606	-0.047925	-0.003205	-0.002837	0.002177
37431	14065661	-0.147080	9.880198	-0.038710	-0.009270	-0.002044	-0.004789
37432	14065686	-0.136956	9.873104	-0.032559	-0.006902	0.000723	0.000606
37433	14065711	-0.146515	9.875977	-0.041675	-0.003885	-0.000006	-0.001012
37434	14065736	-0.133169	9.837711	-0.041696	-0.010285	-0.002317	-0.002420
37435	14065761	-0.143022	9.892297	-0.019603	-0.002915	-0.000116	-0.001456
37436	14065786	-0.114894	9.859221	-0.037519	-0.003459	-0.001554	-0.004360
37437	14065811	-0.111726	9.839606	-0.054721	-0.005625	-0.003853	-0.003728
37438	14065836	-0.131310	9.868747	-0.021079	-0.009063	-0.000291	-0.002217
37439	14065861	-0.135105	9.874094	-0.033552	-0.006224	-0.002764	-0.000441
37440	14065886	-0.127181	9.886026	-0.031724	-0.003564	0.002131	-0.002025
37441	14065911	-0.158112	9.891049	-0.044002	-0.004967	-0.002158	-0.002360
37442	14065936	-0.158680	9.888556	-0.036315	-0.005293	-0.006501	-0.006042
37443	14065961	-0.146091	9.872363	-0.021956	-0.007755	-0.003307	-0.003839
37444	14065986	-0.130549	9.882349	-0.011559	-0.005965	-0.000487	0.001819
37445	14066011	-0.146446	9.877126	-0.054161	-0.001442	-0.004427	-0.002769
37446	14066036	-0.112026	9.895266	-0.033693	-0.004642	0.001919	-0.001642
37447	14066061	-0.170536	9.889075	-0.019036	-0.001992	-0.000219	0.005278
37448	14066086	-0.119608	9.861242	-0.049044	-0.000715	0.003210	-0.001198
37449	14066111	-0.090227	9.837450	-0.051448	-0.006887	-0.000380	-0.001839
37450	14066136	-0.126930	9.858256	-0.015367	-0.007237	0.000902	-0.000545
37451	14066161	-0.134781	9.846579	-0.033065	-0.004509	0.001335	-0.004014
37452	14066186	-0.137404	9.869890	-0.039332	-0.004141	0.000179	-0.002553
37453	14066211	-0.126879	9.900353	-0.037473	-0.004637	0.003593	-0.004068
37454	14066236	-0.115517	9.872091	-0.041781	-0.006309	-0.002253	-0.002050
37455	14066261	-0.127987	9.880579	-0.048373	-0.009194	-0.004369	-0.004224
37456	14066286	-0.139191	9.870584	-0.055587	-0.005545	-0.002098	-0.000313
37457	14066311	-0.142632	9.877676	-0.056513	-0.005420	-0.004235	-0.003016
37458	14066336	-0.133471	9.855574	-0.030636	-0.009683	-0.000952	-0.003310
37459	14066361	-0.120770	9.858916	-0.022139	-0.005186	-0.003655	-0.005260
37460	14066386	-0.105448	9.863978	-0.030294	-0.006425	0.001697	-0.000806
37461	14066411	-0.117250	9.881638	-0.015965	-0.003251	-0.001878	-0.003202
37462	14066436	-0.111888	9.844975	-0.033618	-0.007468	-0.000203	-0.003058
37463	14066461	-0.136838	9.863747	-0.040715	-0.006025	-0.003016	-0.000124
37464	14066486	-0.124876	9.853308	-0.030789	-0.001095	0.002746	-0.004789
37465	14066511	-0.104129	9.839052	-0.043794	-0.004743	-0.001058	-0.000699
37466	14066536	-0.128982	9.867768	-0.018214	-0.006038	-0.005287	-0.006424
37467	14066561	-0.120019	9.851444	-0.029264	-0.008997	-0.002220	0.001235
37468	14066586	-0.122920	9.846663	-0.029302	-0.007023	-0.000064	-0.001584
37469	14066611	-0.143476	9.853834	-0.018704	-0.002395	-0.002232	0.001408
37470	14066636	-0.140390	9.906046	-0.017659	-0.008668	-0.004745	-0.003009
37471	14066661	-0.170154	9.888223	-0.023843	-0.004487	-0.003579	-0.006281
37472	14066686	-0.143979	9.860577	-0.025418	0.001052	0.000349	0.004430
37473	14066711	-0.149030	9.883203	-0.021053	-0.003797	-0.002193	0.003342
37474	14066736	-0.142432	9.849220	-0.026397	0.000602	0.002146	0.000462
37475	14066761	-0.158742	9.863949	-0.041084	-0.005546	-0.003847	0.000642
37476	14066786	-0.143524	9.899092	-0.030587	-0.007941	-0.005312	-0.001027
37477	14066811	-0.137269	9.902698	-0.044604	-0.003551	0.002070	0.000735
37478	14066836	-0.126711	9.882675	-0.028789	-0.006783	0.002392	-0.005223
37479	14066861	-0.133212	9.883308	-0.045575	-0.004809	0.003409	0.001834
37480	14066886	-0.129797	9.859769	-0.023035	-0.003764	0.002252	-0.002737
37481	14066911	-0.129527	9.886980	-0.033600	0.000064	-0.001357	-0.001223
37482	14066936	-0.154197	9.881663	-0.047315	-0.007008	0.001617	-0.003360
37483	14066961	-0.106603	9.880177	-0.035577	-0.007962	-0.002797	-0.003135
37484	14066986	-0.133098	9.870815	-0.035432	-0.006796	-0.006965	0.001913
37485	14067011	-0.142298	9.890940	-0.054592	-0.009122	-0.002290	-0.000624
37486	14067036	-0.115534	9.868073	-0.026954	-0.003338	-0.000966	-0.000317
37487	14067061	-0.104470	9.868826	-0.036579	-0.004141	0.000325	0.003603
37488	14067086	-0.157860	9.865849	-0.039697	-0.004816	0.000937	-0.005428
37489	14067111	-0.121304	9.881104	-0.046076	-0.004227	-0.005314	-0.000785
37490	14067136	-0.135496	9.859686	-0.022058	-0.007065	-0.000715	-0.003506
37491	14067161	-0.114953	9.873335	-0.060538	-0.001533	0.000356	-0.004093
37492	14067186	-0.105181	9.860332	-0.070114	-0.006485	-0.000958	-0.002035
37493	14067211	-0.129749	9.871046	-0.046981	-0.005469	-0.004818	-0.003660
37494	14067236	-0.111306	9.862513	-0.001022	-0.009291	-0.000747	0.001182
37495	14067261	-0.140602	9.898835	-0.042651	-0.004584	-0.006095	-0.000720
37496	14067286	-0.125723	9.888447	-0.033605	-0.006036	0.001511	-0.001639
37497	14067311	-0.123452	9.849477	-0.026779	-0.013146	0.001116	-0.004572
37498	14067336	-0.143547	9.863035	-0.030641	-0.004727	0.004566	-0.002716
37499	14067361	-0.117379	9.853554	-0.009667	-0.006801	-0.000966	-0.002421
37500	14067386	-0.119093	9.841399	-0.022617	-0.002299	-0.001730	-0.004235
37501	14067411	-0.126205	9.854883	-0.042201	-0.006029	0.001386	0.001054
37502	14067436	-0.134036	9.889452	-0.012988	-0.004040	-0.003374	-0.004683
37503	14067461	-0.138991	9.867334	0.002409	-0.006755	-0.004312	0.001475
37504	14067486	-0.151851	9.868158	0.000054	-0.001693	0.000237	0.005212
37505	14067511	-0.140561	9.873937	0.003808	-0.000390	-0.003242	-0.002706
37506	14067536	-0.153089	9.899200	-0.015221	-0.007728	-0.003619	0.002895
37507	14067561	-0.141075	9.891474	-0.027307	-0.004730	-0.001509	-0.001077
37508	14067586	-0.125607	9.877974	-0.031683	-0.007395	0.004138	0.001329
37509	14067611	-0.145382	9.869963	-0.051271	-0.002947	0.001116	0.000726
37510	14067636	-0.138284	9.865088	-0.036878	-0.005549	0.000291	-0.000302
37511	14067661	-0.145894	9.867885	-0.039722	-0.005695	-0.003003	0.003406
37512	14067686	-0.144672	9.885704	-0.055546	-0.006749	0.001557	-0.003113
37513	14067711	-0.119608	9.861348	-0.055697	-0.002530	-0.002837	-0.005519
37514	14067736	-0.144924	9.869975	-0.051232	-0.004500	-0.000599	-0.000051
37515	14067761	-0.141883	9.860229	-0.062812	-0.002851	-0.002316	-0.001214
37516	14067786	-0.127464	9.868930	-0.030340	0.001210	0.003119	-0.003129
37517	14067811	-0.133527	9.862733	-0.033599	-0.002411	0.000086	-0.001013
37518	14067836	-0.109855	9.852548	-0.062411	-0.007510	-0.002846	-0.001338
37519	14067861	-0.106734	9.867181	-0.054888	0.002590	-0.001757	0.003384
37520	14067886	-0.114349	9.887046	-0.025539	-0.002918	-0.002117	-0.001352
37521	14067911	-0.116102	9.875109	-0.022607	-0.007518	-0.000067	0.002974
37522	14067936	-0.123290	9.855446	-0.045555	-0.007300	0.001302	0.003944
37523	14067961	-0.113990	9.872977	-0.067735	-0.004129	0.001533	-0.004917
37524	14067986	-0.128055	9.879786	-0.027768	-0.008060	0.002831	0.000685
37525	14068011	-0.138562	9.874636	-0.009095	-0.005578	-0.000741	0.000276
37526	14068036	-0.118874	9.872532	-0.042223	-0.007716	-0.004669	-0.004745
37527	14068061	-0.140104	9.892093	-0.034960	-0.007176	0.000705	-0.003757
37528	14068086	-0.116017	9.878357	-0.048436	-0.008199	0.002891	-0.000857
37529	14068111	-0.114094	9.862203	-0.014003	-0.007415	-0.001420	0.000276
37530	14068136	-0.108526	9.876746	-0.029803	-0.010839	-0.000846	-0.004275
37531	14068161	-0.138347	9.866963	-0.034980	-0.007537	-0.002013	-0.003320
37532	14068186	-0.134728	9.852017	-0.048393	-0.007269	0.001939	-0.000158
37533	14068211	-0.145536	9.867186	-0.024352	-0.008287	-0.002602	-0.001654
37534	14068236	-0.125428	9.886050	-0.001465	-0.007711	-0.004271	0.000387
37535	14068261	-0.150115	9.859400	-0.046478	0.000392	0.002392	-0.004406
37536	14068286	-0.123333	9.852022	-0.038910	-0.002462	0.002030	0.001498
37537	14068311	-0.148118	9.872496	-0.001341	-0.007209	-0.001998	-0.000498
37538	14068336	-0.123828	9.864686	0.001913	-0.008149	-0.002936	-0.004095
37539	14068361	-0.126423	9.856359	-0.014931	-0.003874	-0.000329	-0.003195
37540	14068386	-0.150721	9.896522	-0.023483	-0.000517	-0.001052	-0.003333
37541	14068411	-0.108758	9.856594	-0.015472	-0.003460	0.000909	-0.001332
37542	14068436	-0.129534	9.852028	-0.044613	-0.005378	0.000805	-0.000039
37543	14068461	-0.173884	9.878920	-0.008491	-0.001837	0.002421	-0.002156
37544	14068486	-0.147858	9.867698	-0.028741	-0.000249	0.000708	-0.000371
37545	14068511	-0.143684	9.883338	-0.055586	-0.002939	-0.001475	-0.001983
37546	14068536	-0.159297	9.861726	-0.019566	-0.005637	-0.000940	0.000337
37547	14068561	-0.133312	9.846957	-0.026402	-0.002989	-0.001466	0.004113
37548	14068586	-0.128715	9.853236	-0.029259	-0.003669	-0.000846	-0.002360
37549	14068611	-0.113338	9.854597	-0.043724	-0.005865	-0.002104	-0.000699
37550	14068636	-0.119372	9.871511	-0.037517	-0.000222	0.005676	-0.005160
37551	14068661	-0.117483	9.876882	-0.045581	-0.006245	0.001560	-0.003497
37552	14068686	-0.123560	9.864305	-0.035502	-0.007907	-0.000599	-0.003117
37553	14068711	-0.148495	9.891613	-0.042155	-0.005433	-0.001247	0.004248
37554	14068736	-0.105145	9.848054	-0.043791	-0.003392	-0.003031	0.003077
37555	14068761	-0.112564	9.853708	-0.015901	-0.004900	-0.000283	-0.000753
37556	14068786	-0.102434	9.851753	-0.035114	-0.005564	0.004746	-0.002329
37557	14068811	-0.129240	9.864312	-0.040281	-0.006552	0.003433	-0.001693
37558	14068836	-0.138241	9.866738	-0.051311	-0.001752	-0.002684	-0.001928
37559	14068861	-0.132147	9.881269	-0.065733	-0.003105	-0.000580	-0.003770
37560	14068886	-0.136906	9.860651	-0.024405	-0.007607	-0.001691	-0.002426
37561	14068911	-0.114347	9.857406	-0.041697	-0.013360	-0.004177	-0.001012
37562	14068936	-0.125431	9.867710	-0.042190	-0.006916	-0.001091	-0.000434
37563	14068961	-0.132674	9.878606	-0.047441	-0.006163	-0.002630	0.000010
37564	14068986	-0.126792	9.869249	-0.051306	-0.008011	-0.000785	0.001885
37565	14069011	-0.135392	9.868664	-0.051273	-0.005098	0.004174	0.000234
37566	14069036	-0.144102	9.867716	-0.026714	-0.009525	0.004618	-0.000070
37567	14069061	-0.142188	9.881361	-0.048801	-0.010717	-0.002575	0.001179
37568	14069086	-0.147750	9.889935	-0.024411	-0.005487	0.004292	-0.002974
37569	14069111	-0.145565	9.863763	-0.017674	-0.006247	-0.000504	-0.004533
37570	14069136	-0.126640	9.876595	-0.035048	-0.004366	0.002883	-0.005227
37571	14069161	-0.145637	9.872864	-0.023441	-0.005361	-0.002040	-0.004801
37572	14069186	-0.139439	9.871052	-0.023976	-0.004004	0.001861	-0.002414
37573	14069211	-0.146213	9.876478	-0.012386	-0.006478	-0.002830	-0.000119
37574	14069236	-0.127091	9.875345	-0.016319	-0.006787	0.000983	0.001118
37575	14069261	-0.120436	9.861915	-0.000471	-0.011356	0.001276	-0.005281
37576	14069286	-0.145631	9.876304	-0.031123	-0.003244	-0.000060	-0.002868
37577	14069311	-0.146968	9.887022	0.011556	-0.008096	-0.004154	0.000198
37578	14069336	-0.144304	9.877491	-0.014754	-0.007099	-0.003743	-0.001726
37579	14069361	-0.138936	9.868095	-0.016764	-0.006142	0.000602	-0.002794
37580	14069386	-0.148924	9.878643	-0.032114	-0.000344	0.003941	0.002334
37581	14069411	-0.127819	9.852481	-0.010616	-0.001435	-0.000215	0.000840
37582	14069436	-0.128938	9.877398	-0.027399	-0.003694	0.000525	0.003095
37583	14069461	-0.122220	9.868914	-0.025970	-0.002863	-0.001734	0.000705
37584	14069486	-0.119723	9.866892	-0.046113	-0.004913	-0.004230	-0.004877
37585	14069511	-0.134435	9.864176	-0.035894	-0.007711	-0.002329	0.001363
37586	14069536	-0.124802	9.855348	-0.040309	-0.005414	0.002168	-0.000547
37587	14069561	-0.116582	9.874243	-0.027950	-0.002398	0.001699	-0.001264
37588	14069586	-0.130292	9.877735	-0.050351	-0.003700	-0.001812	-0.002246
37589	14069611	-0.118798	9.867752	-0.039887	-0.004883	0.003400	-0.000992
37590	14069636	-0.126717	9.870024	-0.070464	-0.007270	-0.000060	-0.000364
37591	14069661	-0.119986	9.862942	-0.067180	-0.006717	-0.003935	-0.002949
37592	14069686	-0.132380	9.888977	-0.043122	-0.006635	0.002202	-0.000413
37593	14069711	-0.123649	9.868443	-0.026420	-0.007173	0.003037	-0.002144
37594	14069736	-0.120171	9.866405	-0.045617	-0.006026	0.005189	-0.001810
37595	14069761	-0.137494	9.882927	-0.054111	-0.008373	0.000106	-0.003308
37596	14069786	-0.148465	9.886045	-0.050253	-0.006711	-0.001734	-0.002229
37597	14069811	-0.140722	9.877689	-0.055559	-0.007151	-0.001878	-0.000755
37598	14069836	-0.126019	9.878736	-0.050406	-0.002512	0.001116	-0.002287
37599	14069861	-0.133594	9.876840	-0.056577	-0.004549	-0.003374	-0.003207
37600	14069886	-0.108167	9.858454	-0.043767	-0.003959	0.004791	0.000355
37601	14069911	-0.149898	9.881216	-0.045944	-0.006454	-0.001723	-0.001591
37602	14069936	-0.131160	9.861172	-0.022470	-0.009874	-0.007269	-0.000711
37603	14069961	-0.135340	9.858953	-0.036856	-0.007841	-0.002261	0.000909
37604	14069986	-0.126536	9.896140	-0.009646	-0.006633	-0.002444	-0.006083
37605	14070011	-0.125627	9.870744	-0.023557	-0.003114	0.002022	-0.002353
37606	14070036	-0.113797	9.874539	-0.013592	0.000827	-0.001207	-0.002635
37607	14070061	-0.129749	9.862302	-0.033590	-0.003038	0.001761	-0.002733
37608	14070086	-0.141097	9.848116	-0.014829	-0.005330	-0.000736	-0.003193
37609	14070111	-0.130189	9.848635	-0.008692	-0.001368	-0.000668	-0.002432
37610	14070136	-0.138341	9.857224	-0.018247	-0.002071	-0.000811	-0.003324
37611	14070161	-0.138419	9.868640	-0.020639	-0.001535	-0.001176	-0.000705
37612	14070186	-0.118908	9.865451	-0.013018	-0.006244	-0.002234	-0.000571
37613	14070211	-0.124196	9.878582	-0.038953	0.000775	0.000413	-0.001597
37614	14070236	-0.120402	9.879887	-0.028313	-0.006711	-0.001591	0.000207
37615	14070261	-0.121256	9.874355	-0.039384	-0.003523	0.000916	0.000399
37616	14070286	-0.137455	9.870909	-0.044035	-0.009504	0.003383	-0.006811
37617	14070311	-0.139982	9.882670	-0.039231	-0.008908	-0.003387	-0.005311
37618	14070336	-0.139506	9.878159	-0.023904	-0.006709	0.002477	-0.000797
37619	14070361	-0.131364	9.874982	-0.026374	-0.007536	0.000195	-0.001509
37620	14070386	-0.113621	9.864305	-0.027406	-0.008482	-0.000538	-0.005174
37621	14070411	-0.115531	9.876400	-0.043718	-0.005834	-0.003260	-0.002371
37622	14070436	-0.142870	9.890837	-0.048825	-0.008579	0.000630	-0.002785
37623	14070461	-0.136263	9.886824	-0.028760	-0.005507	0.000748	-0.003183
37624	14070486	-0.155185	9.883486	-0.043561	-0.001167	0.001284	-0.002097
37625	14070511	-0.105358	9.869595	-0.057200	-0.006165	0.001583	0.000671
37626	14070536	-0.129695	9.860468	-0.037402	-0.006010	-0.001523	-0.001974
37627	14070561	-0.157566	9.920843	-0.037252	-0.008377	-0.003628	-0.001720
37628	14070586	-0.137832	9.870058	-0.050780	-0.006828	-0.004381	-0.004168
37629	14070611	-0.150383	9.845636	-0.046427	-0.004105	0.000970	-0.003186
37630	14070636	-0.144701	9.882980	-0.032619	-0.000778	-0.002977	0.000061
37631	14070661	-0.128019	9.851654	-0.049803	-0.010310	0.003257	0.001654
37632	14070686	-0.126319	9.856148	-0.031614	-0.011638	0.000060	-0.001884
37633	14070711	-0.134688	9.846830	-0.049836	-0.009355	-0.005461	-0.003593
37634	14070736	-0.130775	9.847450	-0.056132	-0.001092	-0.001170	0.000896
37635	14070761	-0.131612	9.869523	-0.042643	-0.007403	0.000203	0.001496
37636	14070786	-0.158063	9.885192	-0.033472	-0.002262	-0.000219	0.001554
37637	14070811	-0.150172	9.872844	-0.056479	-0.006111	-0.000162	0.000082
37638	14070836	-0.142184	9.864330	-0.021541	-0.004597	0.000575	0.000347
37639	14070861	-0.121136	9.855761	-0.002482	-0.003038	0.000422	0.006238
37640	14070886	-0.126109	9.872909	-0.011094	-0.003567	0.000733	0.004444
37641	14070911	-0.142772	9.875398	-0.031558	-0.009222	-0.003521	-0.004604
37642	14070936	-0.145337	9.869921	0.013958	-0.006004	0.002685	0.001320
37643	14070961	-0.144501	9.889696	-0.006719	-0.003976	-0.005297	-0.002447
37644	14070986	-0.117201	9.844260	-0.022145	-0.004068	0.001809	-0.002928
37645	14071011	-0.138478	9.877813	-0.031158	-0.004998	0.001216	0.000799
37646	14071036	-0.147601	9.872169	-0.010460	-0.004575	-0.002462	-0.001281
37647	14071061	-0.133523	9.857714	-0.016358	-0.000784	-0.004853	0.000881
37648	14071086	-0.150401	9.869825	-0.014826	-0.002539	-0.001910	-0.001472
37649	14071111	-0.126114	9.866212	-0.007288	-0.001262	-0.002086	-0.004429
37650	14071136	-0.097771	9.860772	-0.032250	-0.007592	0.002202	0.001381
37651	14071161	-0.113394	9.863729	-0.052328	-0.008851	-0.002798	0.000396
37652	14071186	-0.118174	9.889918	-0.030316	-0.001870	-0.000674	-0.001024
37653	14071211	-0.127291	9.857959	-0.026457	-0.002237	-0.001323	-0.001407
37654	14071236	-0.118488	9.870267	-0.017376	-0.003104	-0.000307	-0.001463
37655	14071261	-0.109085	9.855014	-0.036579	-0.005084	-0.000139	0.001109
37656	14071286	-0.141486	9.892060	-0.035396	-0.009261	-0.001702	0.000860
37657	14071311	-0.105939	9.869931	-0.048108	-0.002328	-0.002818	-0.004239
37658	14071336	-0.126690	9.869516	-0.068609	-0.002950	-0.001004	0.000717
37659	14071361	-0.136193	9.888041	-0.046436	-0.007595	0.003874	-0.003737
37660	14071386	-0.129893	9.885947	-0.059486	-0.003268	-0.005549	-0.004633
37661	14071411	-0.136247	9.867499	-0.068088	-0.001569	-0.004613	-0.002967
37662	14071436	-0.147212	9.863311	-0.052261	-0.001436	-0.002141	0.001924
37663	14071461	-0.131633	9.868073	-0.039795	-0.004733	0.000903	0.000153
37664	14071486	-0.123615	9.849734	-0.075253	-0.008842	-0.001124	-0.001708
37665	14071511	-0.115997	9.865689	-0.027004	-0.000647	0.003166	-0.000493
37666	14071536	-0.135365	9.870613	-0.054178	-0.004204	0.000328	0.001562
37667	14071561	-0.138362	9.873242	-0.042112	-0.009865	0.000933	-0.002013
37668	14071586	-0.146244	9.850821	-0.040732	-0.001290	0.000750	-0.007175
37669	14071611	-0.149387	9.878260	-0.038306	-0.002462	-0.002423	-0.000960
37670	14071636	-0.143299	9.872492	-0.090086	-0.004578	-0.002331	-0.001344
37671	14071661	-0.156973	9.873869	-0.036287	-0.008710	0.001085	-0.000155
37672	14071686	-0.146340	9.877308	-0.066523	-0.008480	-0.002207	0.001043
37673	14071711	-0.144545	9.875166	-0.049798	-0.004400	-0.001813	-0.000124
37674	14071736	-0.148057	9.877179	-0.028215	-0.006124	-0.000167	-0.003116
37675	14071761	-0.138008	9.888150	-0.055064	-0.010327	-0.000627	-0.000937
37676	14071786	-0.147762	9.857479	-0.042567	-0.004956	0.001140	-0.006387
37677	14071811	-0.113247	9.847047	-0.045651	-0.007018	-0.002055	-0.001144
37678	14071836	-0.119252	9.863400	-0.034099	-0.006066	-0.001910	-0.001723
37679	14071861	-0.109658	9.850001	-0.019706	-0.011593	0.000773	-0.001819
37680	14071886	-0.161206	9.904533	-0.028591	-0.009145	-0.003770	-0.001656
37681	14071911	-0.122627	9.866755	-0.039354	-0.005952	0.002612	-0.004710
37682	14071936	-0.122075	9.868707	-0.042765	-0.001994	-0.000471	0.003664
37683	14071961	-0.137009	9.869210	-0.024989	-0.000361	-0.002007	-0.002955
37684	14071986	-0.124283	9.877936	-0.027415	-0.001532	-0.003771	-0.004375
37685	14072011	-0.090962	9.855503	-0.053903	-0.006419	-0.001083	-0.005758
37686	14072036	-0.149874	9.902082	-0.013888	-0.001521	0.004500	-0.002083
37687	14072061	-0.145893	9.890888	-0.023438	-0.005011	0.001274	-0.003563
37688	14072086	-0.127978	9.863417	-0.012005	-0.005515	-0.000997	-0.002940
37689	14072111	-0.115973	9.864778	-0.029349	-0.005032	-0.004347	-0.002190
37690	14072136	-0.137708	9.851235	-0.029242	-0.003584	-0.003351	-0.001803
37691	14072161	-0.105623	9.848362	-0.063883	-0.005595	-0.000942	-0.007170
37692	14072186	-0.144625	9.871435	-0.022469	-0.005142	-0.000401	0.000471
37693	14072211	-0.123602	9.862143	-0.018257	-0.007261	-0.000378	-0.000495
37694	14072236	-0.109610	9.888035	-0.024603	-0.001968	-0.003898	-0.000848
37695	14072261	-0.134414	9.860420	-0.038792	-0.007132	-0.004645	-0.000706
37696	14072286	-0.156665	9.878056	-0.031070	-0.004677	0.000563	-0.004336
37697	14072311	-0.141256	9.882398	-0.054103	-0.005813	0.002491	-0.001886
37698	14072336	-0.150047	9.894401	-0.040176	-0.006813	-0.004178	0.001542
37699	14072361	-0.149860	9.873520	-0.038745	-0.003836	0.002387	-0.005871
37700	14072386	-0.130463	9.850007	-0.037421	-0.004582	0.002256	0.001188
37701	14072411	-0.145952	9.867046	-0.046440	-0.003599	0.003038	-0.005481
37702	14072436	-0.140212	9.860704	-0.030631	-0.007756	0.001031	-0.003050
37703	14072461	-0.144903	9.863569	-0.035847	-0.008434	0.000708	0.001505
37704	14072486	-0.155221	9.854645	-0.050279	-0.002077	-0.000288	0.000072
37705	14072511	-0.140936	9.858245	-0.056530	-0.003602	0.001371	-0.001258
37706	14072536	-0.129366	9.872288	-0.034537	-0.005005	0.001214	-0.001195
37707	14072561	-0.137169	9.866503	-0.003834	-0.003558	-0.000452	-0.007045
37708	14072586	-0.163867	9.885428	-0.022844	-0.008203	-0.005370	-0.002947
37709	14072611	-0.125792	9.862041	-0.044224	0.000878	-0.002488	0.001851
37710	14072636	-0.147260	9.891951	-0.032057	-0.006667	-0.001077	-0.001973
37711	14072661	-0.163998	9.899301	-0.030050	-0.006589	-0.001332	-0.000559
37712	14072686	-0.122335	9.881801	-0.031236	-0.004892	-0.002275	0.000133
37713	14072711	-0.129461	9.878361	-0.028308	-0.006172	-0.002557	-0.001660
37714	14072736	-0.139412	9.904533	-0.011443	-0.009410	-0.001127	-0.000107
37715	14072761	-0.137430	9.877194	-0.052238	-0.007255	0.003366	-0.001945
37716	14072786	-0.126114	9.873078	-0.021596	-0.005695	-0.003518	-0.002500
37717	14072811	-0.129749	9.865684	-0.036918	-0.009209	-0.001706	-0.002481
37718	14072836	-0.133534	9.888975	-0.011977	-0.006895	-0.000054	-0.003439
37719	14072861	-0.126813	9.848796	-0.016334	-0.005940	-0.001910	-0.004290
37720	14072886	-0.102511	9.858841	-0.033239	-0.004692	-0.000784	-0.002554
37721	14072911	-0.116066	9.873801	-0.029777	-0.007875	0.007172	-0.000897
37722	14072936	-0.124287	9.848650	-0.035980	-0.008602	-0.000662	-0.000936
37723	14072961	-0.135615	9.863405	-0.016860	0.001113	-0.000240	-0.006154
37724	14072986	-0.136409	9.889929	-0.014397	-0.005427	-0.001900	-0.003773
37725	14073011	-0.158794	9.900170	-0.020459	-0.008103	0.000261	0.000416
37726	14073036	-0.147996	9.875369	-0.034437	-0.006343	-0.001206	-0.001591
37727	14073061	-0.115848	9.857832	-0.040374	-0.004484	0.002700	-0.005105
37728	14073086	-0.128244	9.859866	-0.028289	-0.007835	-0.008784	0.000554
37729	14073111	-0.147268	9.891036	-0.034040	-0.000937	-0.002280	-0.006609
37730	14073136	-0.141701	9.894137	-0.015754	-0.005515	0.000681	-0.005168
37731	14073161	-0.129692	9.863371	-0.041274	-0.003234	-0.000373	-0.002104
37732	14073186	-0.148313	9.861910	-0.022929	-0.004342	-0.001810	-0.001401
37733	14073211	-0.154272	9.859938	-0.054121	-0.003591	-0.002892	0.001350
37734	14073236	-0.143923	9.852251	-0.038878	0.002432	-0.005838	-0.006831
37735	14073261	-0.132065	9.866608	-0.037888	-0.005116	-0.005633	0.001016
37736	14073286	-0.139385	9.880047	-0.053657	-0.004531	-0.001952	-0.004548
37737	14073311	-0.143334	9.853810	-0.047921	-0.002727	0.002095	-0.001320
37738	14073336	-0.128782	9.866680	-0.039304	-0.008379	-0.003822	-0.001916
37739	14073361	-0.164328	9.884223	-0.036303	-0.001276	-0.001958	-0.006670
37740	14073386	-0.143458	9.863144	-0.037846	-0.003205	-0.003141	0.001153
37741	14073411	-0.158048	9.882550	-0.046432	-0.000209	-0.000969	-0.005321
37742	14073436	-0.120998	9.867122	-0.062324	-0.008346	-0.004853	-0.001217
37743	14073461	-0.144279	9.886410	-0.039251	-0.008406	0.001475	-0.001954
37744	14073486	-0.126582	9.853603	-0.052274	-0.006248	0.000036	0.002198
37745	14073511	-0.146170	9.914076	-0.019603	-0.005358	0.002302	-0.000541
37746	14073536	-0.134840	9.877868	-0.000955	-0.005268	-0.000077	0.003293
37747	14073561	-0.107833	9.863461	-0.029836	-0.006354	-0.000943	-0.001781
37748	14073586	-0.117243	9.848517	-0.021692	-0.004731	-0.001694	-0.001980
37749	14073611	-0.121085	9.848351	-0.013468	-0.008096	-0.000460	-0.002095
37750	14073636	-0.118812	9.864717	-0.028367	-0.005716	-0.002678	-0.000058
37751	14073661	-0.106400	9.864015	-0.033252	-0.002967	0.001571	-0.001200
37752	14073686	-0.111386	9.876667	-0.027407	-0.007181	-0.001222	-0.003508
37753	14073711	-0.110630	9.865660	-0.050844	-0.011784	-0.001369	-0.004019
37754	14073736	-0.128468	9.879971	-0.040315	-0.007491	-0.003618	-0.004162
37755	14073761	-0.130056	9.881584	-0.022620	0.000237	0.001566	-0.002357
37756	14073786	-0.152401	9.875588	-0.020979	-0.007367	0.002843	-0.005215
37757	14073811	-0.144314	9.873557	-0.005697	-0.004204	0.002261	-0.000679
37758	14073836	-0.139266	9.853886	-0.018687	-0.003810	-0.000256	-0.004093
37759	14073861	-0.121954	9.858889	-0.052312	-0.005667	-0.000222	-0.002293
37760	14073886	-0.139738	9.862201	-0.034478	-0.007330	-0.002648	-0.004861
37761	14073911	-0.136609	9.847665	-0.044109	-0.003535	-0.003155	-0.001988
37762	14073936	-0.173152	9.884584	-0.067411	-0.004551	-0.005503	-0.003855
37763	14073961	-0.160852	9.879004	-0.034393	-0.004454	-0.004466	-0.003016
37764	14073986	-0.145577	9.882285	-0.050265	-0.007188	-0.002509	0.001042
37765	14074011	-0.145816	9.878877	-0.076149	-0.006814	-0.000235	0.002199
37766	14074036	-0.141250	9.872662	-0.037824	-0.006850	0.002927	-0.003104
37767	14074061	-0.145633	9.842507	-0.055019	-0.007336	-0.000650	-0.007288
37768	14074086	-0.167917	9.886052	-0.065957	-0.005570	-0.001188	-0.001137
37769	14074111	-0.132817	9.852626	-0.054617	-0.009638	-0.000294	-0.001700
37770	14074136	-0.160632	9.861946	-0.035379	-0.002973	-0.000168	0.000337
37771	14074161	-0.150869	9.895261	-0.065561	-0.008285	-0.004336	0.000584
37772	14074186	-0.152164	9.912567	-0.050270	-0.004575	-0.000532	-0.003576
37773	14074211	-0.129132	9.894323	-0.048348	-0.010990	0.001808	-0.006695
37774	14074236	-0.125007	9.878273	-0.050374	-0.006858	-0.004956	0.000831
37775	14074261	-0.133309	9.881705	-0.033589	-0.004198	-0.006339	-0.001815
37776	14074286	-0.121181	9.864370	-0.037482	-0.003771	0.000584	-0.003579
37777	14074311	-0.120871	9.879547	-0.036514	-0.006527	0.002863	-0.001889
37778	14074336	-0.138491	9.885915	-0.034506	-0.006218	-0.002412	0.005589
37779	14074361	-0.108116	9.851135	-0.030890	-0.001059	-0.003876	0.002940
37780	14074386	-0.148354	9.859525	-0.022023	-0.000551	0.001875	-0.003056
37781	14074411	-0.120467	9.876005	-0.022173	-0.000688	-0.004081	-0.003608
37782	14074436	-0.141935	9.882360	-0.020984	-0.012183	-0.000787	-0.001629
37783	14074461	-0.118417	9.859741	-0.012539	-0.009519	0.000031	-0.001705
37784	14074486	-0.130314	9.866339	-0.018665	-0.007582	-0.002579	-0.001466
37785	14074511	-0.134032	9.867562	-0.039771	-0.007895	0.001420	0.000286
37786	14074536	-0.119845	9.853862	-0.000533	-0.005208	-0.000735	-0.004029
37787	14074561	-0.153338	9.874975	-0.012347	-0.007862	0.000325	-0.000927
37788	14074586	-0.126325	9.846865	-0.013441	-0.005822	0.000547	-0.003570
37789	14074611	-0.132339	9.880823	-0.037392	-0.005239	0.000559	-0.001901
37790	14074636	-0.158624	9.886015	-0.025771	-0.005624	-0.001384	-0.000174
37791	14074661	-0.137108	9.882134	-0.033593	-0.002435	0.000937	-0.000949
37792	14074686	-0.133616	9.871440	-0.044135	-0.001769	-0.000155	-0.004099
37793	14074711	-0.153946	9.900486	-0.037309	-0.005154	-0.002210	0.000778
37794	14074736	-0.146398	9.871268	-0.044051	-0.003448	-0.003538	0.000381
37795	14074761	-0.146466	9.867228	-0.027731	-0.006416	0.001517	-0.000487
37796	14074786	-0.122737	9.885902	-0.051835	-0.006616	-0.002369	0.000782
37797	14074811	-0.116360	9.865503	-0.045658	-0.002146	0.001776	-0.003640
37798	14074836	-0.134050	9.862314	-0.037024	0.002074	-0.000353	-0.004816
37799	14074861	-0.129548	9.847617	-0.035502	-0.005983	-0.000294	-0.000875
37800	14074886	-0.139142	9.858662	-0.051238	-0.008415	0.001404	-0.005868
37801	14074911	-0.122814	9.843437	-0.035494	-0.008258	0.000702	-0.002602
37802	14074936	-0.138602	9.883380	-0.023517	-0.002742	-0.001265	0.000840
37803	14074961	-0.156051	9.845634	-0.051138	-0.007172	0.002986	0.000942
37804	14074986	-0.116531	9.880259	-0.049468	-0.006744	0.005506	-0.001167
37805	14075011	-0.127533	9.875114	-0.031132	-0.010121	-0.001273	-0.002281
37806	14075036	-0.101144	9.827572	-0.035152	-0.006379	-0.004369	-0.002185
37807	14075061	-0.138440	9.883346	-0.052250	-0.005756	-0.001326	-0.000307
37808	14075086	-0.134083	9.871894	-0.043104	-0.007293	-0.001678	-0.003962
37809	14075111	-0.144950	9.864622	-0.042097	-0.007759	-0.003038	-0.003260
37810	14075136	-0.155810	9.884713	-0.031066	-0.002904	0.001374	-0.004981
37811	14075161	-0.129755	9.892796	-0.011057	-0.006931	-0.003086	-0.002491
37812	14075186	-0.124109	9.874768	-0.037395	-0.008474	-0.002724	-0.001463
37813	14075211	-0.139350	9.895396	-0.002329	-0.008017	-0.000712	-0.000745
37814	14075236	-0.148248	9.882432	0.000519	-0.005776	-0.002547	0.001226
37815	14075261	-0.140640	9.860389	-0.041181	-0.004828	-0.000599	-0.003256
37816	14075286	-0.169556	9.876669	-0.012793	-0.002137	0.001654	-0.001389
37817	14075311	-0.127620	9.878159	-0.014834	-0.011666	0.001553	0.001201
37818	14075336	-0.153857	9.885102	-0.023963	0.000831	-0.001010	0.000003
37819	14075361	-0.132399	9.873753	-0.008645	-0.005654	-0.002742	-0.002366
37820	14075386	-0.129309	9.865923	-0.022096	-0.003137	0.001319	0.003292
37821	14075411	-0.132013	9.889788	-0.033019	-0.013146	0.003126	-0.005838
37822	14075436	-0.161772	9.876120	-0.032940	-0.005718	0.001790	0.001253
37823	14075461	-0.148175	9.879327	-0.013851	-0.002731	0.002156	-0.001834
37824	14075486	-0.144205	9.885091	-0.046472	-0.002992	0.002544	0.000796
37825	14075511	-0.116234	9.852092	-0.037486	-0.004533	-0.004019	-0.003339
37826	14075536	-0.109511	9.858572	-0.053376	-0.002179	-0.001121	0.001480
37827	14075561	-0.112990	9.865051	-0.045178	-0.003932	-0.002258	0.000837
37828	14075586	-0.125644	9.876095	-0.032200	-0.002737	-0.006184	-0.004447
37829	14075611	-0.125742	9.853016	-0.043695	-0.003368	-0.004321	-0.002639
37830	14075636	-0.123192	9.891778	-0.064331	-0.003375	-0.001660	0.001414
37831	14075661	-0.127319	9.869713	-0.050869	-0.002059	-0.002807	0.000122
37832	14075686	-0.140366	9.888692	-0.060839	-0.005507	-0.001188	-0.001787
37833	14075711	-0.121179	9.878551	-0.065251	-0.006931	0.001179	-0.002541
37834	14075736	-0.133631	9.878481	-0.039357	-0.000751	0.002645	0.000596
37835	14075761	-0.142614	9.876235	-0.055510	-0.008880	-0.001831	0.000080
37836	14075786	-0.122733	9.855725	-0.063313	-0.007014	0.002028	0.001635
37837	14075811	-0.089958	9.855129	-0.059599	-0.012058	-0.002925	-0.002998
37838	14075836	-0.141607	9.892303	-0.019577	-0.008591	0.001281	-0.001121
37839	14075861	-0.136462	9.877271	-0.056527	-0.009228	-0.001191	-0.002281
37840	14075886	-0.129272	9.876914	-0.057968	-0.009088	0.000754	-0.000805
37841	14075911	-0.112983	9.896242	-0.037036	-0.003983	0.003231	-0.002280
37842	14075936	-0.156202	9.878008	-0.027259	-0.003488	-0.004710	-0.005139
37843	14075961	-0.144303	9.883780	-0.022934	-0.007774	-0.002448	-0.000241
37844	14075986	-0.133707	9.863740	-0.006741	-0.003350	-0.002572	-0.001025
37845	14076011	-0.156866	9.888354	-0.021449	-0.004466	-0.000082	-0.007424
37846	14076036	-0.129997	9.867006	0.000423	-0.002152	-0.002098	-0.001922
37847	14076061	-0.138166	9.858990	-0.041710	-0.004685	0.003420	0.001830
37848	14076086	-0.124156	9.866440	-0.020185	-0.004205	-0.002074	-0.001918
37849	14076111	-0.130173	9.857982	-0.030162	-0.009817	-0.002687	-0.002488
37850	14076136	-0.144947	9.889285	-0.010958	-0.005402	-0.002740	-0.002430
37851	14076161	-0.136989	9.864700	-0.009657	-0.000949	0.000639	-0.000954
37852	14076186	-0.113114	9.857564	-0.020334	0.000344	0.000134	-0.003013
37853	14076211	-0.123039	9.860460	-0.031722	-0.001174	-0.000918	-0.003971
37854	14076236	-0.145963	9.858913	-0.011962	-0.001711	0.000505	0.002514
37855	14076261	-0.129598	9.886442	-0.029286	-0.006157	-0.001140	-0.003125
37856	14076286	-0.144126	9.867208	-0.024876	-0.007881	0.003035	-0.002970
37857	14076311	-0.144262	9.872288	-0.015738	-0.007117	-0.003029	-0.001720
37858	14076336	-0.140337	9.843349	-0.043600	-0.001268	0.000568	0.001298
37859	14076361	-0.151157	9.860039	-0.027273	-0.003901	-0.003356	-0.001413
37860	14076386	-0.129348	9.873694	-0.033619	-0.002822	0.001125	-0.001457
37861	14076411	-0.104779	9.849924	-0.040956	0.000060	-0.001022	-0.001223
37862	14076436	-0.129707	9.863794	-0.038324	-0.007527	-0.002128	-0.000307
37863	14076461	-0.127700	9.882127	-0.025026	-0.003247	0.002007	-0.005431
37864	14076486	-0.140584	9.902285	-0.050851	-0.000548	-0.004525	-0.003611
37865	14076511	-0.116566	9.890949	-0.065792	-0.003842	-0.001295	-0.001793
37866	14076536	-0.123297	9.854269	-0.061410	-0.005311	-0.003906	-0.006223
37867	14076561	-0.110342	9.879189	-0.036570	-0.003974	-0.003287	-0.000323
37868	14076586	-0.118744	9.861935	-0.031325	-0.001515	-0.003758	0.001723
37869	14076611	-0.147424	9.873575	-0.040669	-0.005075	0.001407	0.000794
37870	14076636	-0.124992	9.887155	-0.072926	-0.005546	-0.001958	0.000206
37871	14076661	-0.150344	9.887105	-0.058420	-0.001869	0.001208	-0.000879
37872	14076686	-0.114217	9.886056	-0.053737	-0.007567	-0.001101	-0.004922
37873	14076711	-0.140575	9.864308	-0.049353	-0.007235	0.000788	-0.002083
37874	14076736	-0.142924	9.881924	-0.023894	-0.007528	-0.000454	-0.005235
37875	14076761	-0.124875	9.859146	-0.040247	-0.008132	-0.001559	-0.002289
37876	14076786	-0.122370	9.879774	-0.022086	-0.010264	-0.000365	-0.000554
37877	14076811	-0.124946	9.856462	-0.020177	-0.005507	-0.001249	0.000140
37878	14076836	-0.151248	9.876406	-0.042537	-0.009543	0.000940	-0.002724
37879	14076861	-0.140989	9.876631	-0.018270	-0.001669	0.000812	-0.003131
37880	14076886	-0.134646	9.863692	-0.003815	-0.006497	-0.002427	-0.001402
37881	14076911	-0.140089	9.847795	-0.024425	-0.005108	-0.001831	-0.002685
37882	14076936	-0.134673	9.873515	-0.025888	-0.004454	-0.004144	-0.001031
37883	14076961	-0.137743	9.853117	-0.028720	-0.006577	-0.006120	-0.002766
37884	14076986	-0.141410	9.863506	0.002869	-0.004402	-0.001816	-0.003076
37885	14077011	-0.152815	9.870742	-0.014767	-0.005914	-0.000682	-0.004150
37886	14077036	-0.116960	9.854500	-0.008663	-0.009623	0.003192	-0.004254
37887	14077061	-0.151939	9.853965	-0.033944	-0.005625	0.000755	0.000927
37888	14077086	-0.127687	9.871862	-0.005852	-0.002684	-0.001532	-0.003713
37889	14077111	-0.140902	9.882445	-0.026364	-0.004798	0.001031	0.002781
37890	14077136	-0.136332	9.855890	-0.022990	-0.006486	-0.000554	0.000082
37891	14077161	-0.130848	9.874564	-0.029773	-0.002179	0.001001	0.000340
37892	14077186	-0.134539	9.875732	-0.047043	-0.001785	-0.001764	-0.001407
37893	14077211	-0.100608	9.856915	-0.029889	-0.004736	0.002964	-0.000803
37894	14077236	-0.135782	9.858638	-0.047518	-0.001882	-0.000280	0.000393
37895	14077261	-0.140060	9.854956	-0.027371	0.000724	0.000353	0.002386
37896	14077286	-0.136566	9.878386	-0.035998	-0.001499	-0.004546	-0.001167
37897	14077311	-0.117878	9.868763	-0.043195	-0.006504	-0.002246	-0.003520
37898	14077336	-0.125107	9.873688	-0.030297	-0.003199	0.003189	0.002275
37899	14077361	-0.137507	9.876424	-0.033049	-0.006346	0.001194	0.000286
37900	14077386	-0.157944	9.913665	-0.033902	-0.007991	0.000453	-0.000866
37901	14077411	-0.138849	9.878641	-0.053719	-0.000419	0.004011	-0.001702
37902	14077436	-0.131306	9.882544	-0.055183	-0.001845	-0.004168	-0.005147
37903	14077461	-0.112435	9.856629	-0.051394	-0.006165	-0.001143	-0.006655
37904	14077486	-0.120789	9.866611	-0.028888	-0.001797	0.000611	-0.005312
37905	14077511	-0.133283	9.881269	-0.035072	-0.003351	0.001366	-0.003889
37906	14077536	-0.133902	9.869414	-0.067099	-0.003783	-0.001286	-0.001462
37907	14077561	-0.143334	9.859760	-0.064196	-0.004736	-0.001493	-0.002046
37908	14077586	-0.131082	9.866738	-0.045552	-0.004755	-0.000717	0.000273
37909	14077611	-0.133286	9.844319	-0.039274	-0.006738	-0.000824	-0.002806
37910	14077636	-0.150946	9.846390	-0.034392	-0.006995	-0.002767	-0.001337
37911	14077661	-0.132042	9.863406	-0.045059	-0.009005	-0.002153	-0.002870
37912	14077686	-0.135282	9.860147	-0.052196	-0.007999	0.000839	0.000347
37913	14077711	-0.127676	9.851031	-0.039848	-0.004305	0.003095	-0.002789
37914	14077736	-0.137038	9.879945	-0.045570	-0.002015	-0.004423	-0.002192
37915	14077761	-0.122975	9.859151	-0.038875	-0.008135	-0.003433	-0.003327
37916	14077786	-0.146978	9.875934	-0.039243	-0.006267	-0.001653	-0.002617
37917	14077811	-0.167874	9.893327	-0.014250	-0.001487	-0.000924	-0.003521
37918	14077836	-0.136873	9.857768	-0.022018	-0.008927	-0.002411	-0.000817
37919	14077861	-0.141610	9.861135	-0.029248	-0.002851	-0.002174	-0.000060
37920	14077886	-0.131934	9.885977	-0.032117	-0.005957	0.000806	-0.002855
37921	14077911	-0.121464	9.891893	-0.038840	-0.009692	0.008111	0.001100
37922	14077936	-0.138528	9.877298	-0.028283	-0.005282	-0.000218	-0.003190
37923	14077961	-0.145674	9.879894	-0.018187	-0.003754	-0.003538	0.003846
37924	14077986	-0.131173	9.859818	-0.026806	-0.011535	-0.001103	-0.002922
37925	14078011	-0.111779	9.873372	-0.029860	-0.004670	0.000764	-0.000361
37926	14078036	-0.109645	9.869192	-0.064376	-0.001998	-0.003260	-0.003923
37927	14078061	-0.118339	9.861808	-0.023055	-0.007685	-0.003488	-0.003393
37928	14078086	-0.134287	9.875196	-0.011527	-0.004326	-0.001942	0.000584
37929	14078111	-0.131666	9.867053	-0.035510	-0.003642	-0.005743	-0.002389
37930	14078136	-0.140681	9.862720	-0.038859	-0.003940	-0.004528	-0.004177
37931	14078161	-0.143857	9.900085	-0.064211	-0.002661	-0.002435	-0.004366
37932	14078186	-0.132369	9.888957	-0.041259	-0.005999	0.000224	-0.002608
37933	14078211	-0.114041	9.868222	-0.036104	-0.002867	0.002612	0.001690
37934	14078236	-0.136726	9.885799	-0.024855	-0.010595	-0.002186	-0.000422
37935	14078261	-0.119035	9.847766	-0.036078	-0.001912	-0.003706	-0.000909
37936	14078286	-0.142819	9.873341	-0.021503	-0.006603	-0.001147	-0.002423
37937	14078311	-0.101538	9.851617	-0.025573	-0.007358	-0.003612	-0.002243
37938	14078336	-0.134186	9.867798	-0.024375	-0.010774	0.001103	-0.004517
37939	14078361	-0.122643	9.859757	-0.016346	-0.005980	0.003780	-0.002459
37940	14078386	-0.135741	9.889941	-0.046059	-0.003758	0.000064	-0.004734
37941	14078411	-0.129487	9.850657	-0.047969	-0.002703	0.001124	-0.000818
37942	14078436	-0.112819	9.861125	-0.066708	-0.007109	0.002922	-0.000219
37943	14078461	-0.152114	9.866323	-0.035350	-0.009523	0.002626	0.000820
37944	14078486	-0.147870	9.872540	-0.035411	-0.003405	0.001444	0.002073
37945	14078511	-0.143404	9.857428	-0.036393	-0.003912	-0.000638	0.001876
37946	14078536	-0.147533	9.879094	-0.029667	-0.006185	0.000100	0.001241
37947	14078561	-0.149860	9.878304	-0.041125	-0.007592	0.002205	-0.000088
37948	14078586	-0.137650	9.862532	-0.054603	-0.006586	0.000606	-0.000939
37949	14078611	-0.133225	9.877120	-0.043197	-0.003026	-0.005095	-0.005142
37950	14078636	-0.114046	9.859989	-0.024551	-0.005290	-0.002155	-0.003074
37951	14078661	-0.122949	9.847874	-0.015423	-0.002357	0.004755	-0.000347
37952	14078686	-0.138519	9.870015	-0.017717	-0.004952	-0.000668	-0.004028
37953	14078711	-0.123931	9.867472	-0.056208	0.001039	-0.003652	-0.000978
37954	14078736	-0.124707	9.886764	-0.046615	0.000505	-0.007418	-0.002472
37955	14078761	-0.111355	9.867382	-0.009327	-0.001211	-0.003380	-0.001034
37956	14078786	-0.115480	9.865284	-0.030357	-0.001369	-0.006869	-0.002468
37957	14078811	-0.135347	9.855622	-0.035520	-0.000145	-0.002900	-0.001810
37958	14078836	-0.118324	9.870142	-0.040422	-0.001477	-0.005382	-0.001302
37959	14078861	-0.138783	9.857271	-0.022032	-0.003716	-0.003484	-0.004105
37960	14078886	-0.132392	9.850139	-0.046499	-0.008915	0.000945	-0.003812
37961	14078911	-0.111583	9.855310	-0.026967	-0.004034	0.000644	-0.003506
37962	14078936	-0.120329	9.875493	-0.050436	-0.003462	0.000581	-0.006977
37963	14078961	-0.117569	9.882587	-0.047046	-0.009005	0.006111	-0.004813
37964	14078986	-0.120066	9.861697	-0.047984	-0.007434	0.003241	-0.000921
37965	14079011	-0.129925	9.875287	-0.014430	-0.006279	-0.000611	0.003673
37966	14079036	-0.139777	9.864408	-0.024859	-0.006796	-0.002766	0.000329
37967	14079061	-0.133987	9.857887	-0.027358	-0.001423	-0.005123	-0.002009
37968	14079086	-0.117147	9.882712	-0.024606	-0.001630	-0.002283	0.000255
37969	14079111	-0.123657	9.863107	-0.019195	-0.007866	-0.001819	-0.004861
37970	14079136	-0.121251	9.870327	-0.024062	-0.002885	-0.001071	0.000584
37971	14079161	-0.127980	9.876715	-0.044162	-0.003608	0.000903	-0.006390
37972	14079186	-0.116376	9.868753	-0.041300	-0.004597	0.000322	-0.001138
37973	14079211	-0.121842	9.853239	-0.055663	-0.005913	0.001781	0.001507
37974	14079236	-0.117500	9.886927	-0.051463	0.001457	-0.000811	-0.001486
37975	14079261	-0.122475	9.888776	-0.021651	-0.004752	0.001545	0.002657
37976	14079286	-0.130291	9.864144	-0.030225	-0.006068	0.000021	-0.005367
37977	14079311	-0.130748	9.868413	-0.030689	-0.005822	-0.001448	-0.001401
37978	14079336	-0.158195	9.890817	-0.028636	-0.006367	-0.002691	-0.003773
37979	14079361	-0.169999	9.896785	-0.056427	-0.002630	-0.003202	-0.001219
37980	14079386	-0.131277	9.879141	-0.049393	-0.005820	-0.001585	-0.003517
37981	14079411	-0.124578	9.875875	-0.048482	-0.006023	-0.001140	-0.002360
37982	14079436	-0.121165	9.865820	-0.038864	-0.006412	-0.003143	-0.002179
37983	14079461	-0.105227	9.841143	-0.025596	-0.003809	0.001679	-0.003448
37984	14079486	-0.129739	9.858881	-0.026848	-0.005445	-0.003386	-0.003268
37985	14079511	-0.151767	9.880803	-0.051269	-0.002310	0.000803	-0.002228
37986	14079536	-0.145704	9.885423	-0.038343	-0.003311	-0.006129	-0.002901
37987	14079561	-0.122143	9.868950	-0.027826	-0.006597	-0.005139	0.002366
37988	14079586	-0.113692	9.843284	-0.049041	-0.003460	-0.001220	-0.002499
37989	14079611	-0.136609	9.880839	-0.040793	-0.002673	0.000149	-0.002936
37990	14079636	-0.122799	9.875011	-0.021572	-0.008884	0.000371	-0.000802
37991	14079661	-0.120047	9.856357	-0.040258	-0.010122	0.000994	-0.001821
37992	14079686	-0.145400	9.868474	-0.046430	-0.007248	-0.006904	0.000758
37993	14079711	-0.136481	9.870309	-0.034539	-0.003217	-0.000829	-0.002106
