// General information: 
//  MT Manager version: 2022.0.0 
//  XDA version: 2022.0.0 build 7085 rev 119802 built on 2022-11-08
// Device information: 
//  DeviceId: 037004D1
//  ProductCode: MTi-300-2A5G4
//  Firmware Version: 1.4.1
//  Hardware Version: 2.1.0
// Device settings: 
//  Filter Profile: general(39.16)
//  Option Flags: Orientation Smoother Disabled, Position/Velocity Smoother Disabled, Continuous Zero Rotation Update Disabled, AHS Disabled, ICC Disabled
// Coordinate system: ENU
PacketCounter	SampleTimeFine	Acc_X	Acc_Y	Acc_Z	Gyr_X	Gyr_Y	Gyr_Z
50291	14387161	9.800707	0.257232	-0.034791	-0.005557	0.001337	-0.002255
50292	14387186	9.768665	0.270190	-0.040385	-0.002007	0.000566	-0.000341
50293	14387211	9.796278	0.262166	-0.022784	-0.005881	0.001660	-0.002439
50294	14387236	9.804914	0.228956	-0.042527	0.001298	-0.001130	-0.004981
50295	14387261	9.789519	0.226360	-0.010364	-0.005171	-0.004922	-0.003119
50296	14387286	9.810798	0.243863	-0.021925	-0.009158	-0.002277	-0.002009
50297	14387311	9.818488	0.237275	-0.020499	-0.004761	-0.001356	-0.000991
50298	14387336	9.782516	0.274137	0.022798	-0.001794	0.000180	-0.000852
50299	14387361	9.811423	0.237405	-0.032920	-0.001778	0.001402	-0.001946
50300	14387386	9.798905	0.237876	-0.011852	-0.005312	-0.004601	-0.003889
50301	14387411	9.791054	0.244482	0.011755	-0.008245	-0.000183	0.003324
50302	14387436	9.796582	0.231132	-0.007425	-0.004123	0.000721	-0.002328
50303	14387461	9.790886	0.235495	-0.019819	-0.005522	0.004706	-0.000823
50304	14387486	9.806413	0.244022	-0.007053	0.001256	-0.001250	0.000212
50305	14387511	9.790455	0.230780	-0.017533	-0.006339	-0.004432	-0.003499
50306	14387536	9.799701	0.239030	0.010727	-0.002909	-0.001860	-0.008886
50307	14387561	9.791213	0.246886	-0.020341	-0.001238	0.000770	-0.000402
50308	14387586	9.795117	0.239778	-0.019484	-0.001501	-0.001232	0.000226
50309	14387611	9.824268	0.225695	-0.008080	-0.000805	-0.000176	0.007924
50310	14387636	9.816216	0.227303	-0.017669	-0.007643	-0.003678	-0.003430
50311	14387661	9.790882	0.244330	-0.036666	-0.006382	-0.001006	-0.004320
50312	14387686	9.818525	0.234889	-0.021043	0.003041	-0.004895	0.002949
50313	14387711	9.787732	0.253330	-0.008402	-0.002576	-0.001453	-0.000159
50314	14387736	9.818755	0.221829	-0.031952	-0.002909	0.002678	-0.003797
50315	14387761	9.816061	0.216321	-0.046920	0.000814	-0.003850	-0.002360
50316	14387786	9.788518	0.245852	-0.043894	-0.001831	-0.003250	-0.003187
50317	14387811	9.801449	0.250508	-0.063596	-0.000945	-0.002381	0.002849
50318	14387836	9.813190	0.213779	-0.040602	-0.003846	-0.000045	-0.000022
50319	14387861	9.796333	0.232677	-0.048654	-0.004888	0.000648	-0.000143
50320	14387886	9.810993	0.236461	-0.039649	-0.002885	0.000429	0.004020
50321	14387911	9.802048	0.221516	-0.026213	-0.005519	-0.003956	-0.001514
50322	14387936	9.802018	0.229288	-0.035258	-0.005381	-0.000210	-0.003164
50323	14387961	9.792911	0.223139	-0.014669	-0.006567	-0.003332	-0.002788
50324	14387986	9.835301	0.225639	-0.020123	-0.005278	0.000568	-0.002643
50325	14388011	9.803824	0.230498	-0.021907	-0.006306	-0.003392	-0.002468
50326	14388036	9.817190	0.231722	-0.031994	-0.006814	0.001131	0.003073
50327	14388061	9.817125	0.225155	-0.007094	0.001214	0.000235	0.001505
50328	14388086	9.789618	0.259711	-0.018875	-0.004321	0.004846	-0.003456
50329	14388111	9.807600	0.235416	-0.026276	-0.001314	-0.003763	-0.007108
50330	14388136	9.806225	0.236003	-0.037202	-0.005266	0.002180	-0.004303
50331	14388161	9.796077	0.236935	-0.015609	-0.004371	0.000454	-0.000271
50332	14388186	9.798537	0.230846	-0.016641	0.000778	-0.004818	-0.003070
50333	14388211	9.801583	0.237961	0.015978	0.000893	-0.002229	-0.003445
50334	14388236	9.786855	0.253529	-0.020854	-0.001939	-0.001699	-0.002468
50335	14388261	9.829288	0.209803	-0.017643	-0.006619	0.000814	0.001206
50336	14388286	9.811237	0.246747	-0.021949	0.001651	-0.003962	-0.003712
50337	14388311	9.797098	0.237572	-0.028553	-0.004625	-0.001672	0.001961
50338	14388336	9.788240	0.256826	-0.020395	-0.001709	-0.002401	0.001630
50339	14388361	9.799473	0.265758	-0.006022	0.000153	0.003318	-0.001164
50340	14388386	9.819871	0.234272	-0.007162	-0.000973	-0.005752	-0.000569
50341	14388411	9.815179	0.254698	0.017277	-0.000882	-0.009114	-0.002964
50342	14388436	9.792397	0.270670	-0.027157	0.002532	-0.004835	0.004877
50343	14388461	9.793718	0.229136	-0.006501	-0.002597	-0.000730	0.002030
50344	14388486	9.805012	0.238208	-0.000325	0.003412	-0.000307	0.000794
50345	14388511	9.793139	0.242518	-0.012291	0.003214	-0.006773	0.000054
50346	14388536	9.823277	0.230543	-0.013354	-0.002185	0.000572	0.002733
50347	14388561	9.821916	0.230182	-0.021066	0.007442	-0.004762	-0.000270
50348	14388586	9.783466	0.268490	-0.042870	0.002258	-0.002457	0.001432
50349	14388611	9.813161	0.240405	-0.013834	-0.000985	-0.003164	0.001884
50350	14388636	9.790915	0.233132	-0.020866	-0.001378	-0.000715	0.001191
50351	14388661	9.794702	0.242868	-0.035737	0.000225	-0.000872	0.002791
50352	14388686	9.817245	0.233256	-0.042100	0.002186	-0.002202	0.002711
50353	14388711	9.777081	0.243163	-0.036709	0.002171	-0.007948	0.001208
50354	14388736	9.816843	0.185745	-0.033956	0.003916	-0.004496	0.000252
50355	14388761	9.803651	0.211222	-0.033318	-0.000566	0.003693	-0.001998
50356	14388786	9.810662	0.228026	-0.045462	-0.004469	-0.006710	0.001612
50357	14388811	9.778331	0.247153	-0.015571	0.003013	-0.004391	-0.001790
50358	14388836	9.772536	0.257199	-0.023181	0.005123	-0.002351	-0.004862
50359	14388861	9.789591	0.229494	-0.030428	0.009437	0.001213	-0.001910
50360	14388886	9.803623	0.245120	-0.018583	0.001344	-0.004028	0.000648
50361	14388911	9.808493	0.204098	-0.031008	0.004484	-0.002164	0.000013
50362	14388936	9.811025	0.211627	0.006342	0.007188	-0.002764	-0.001732
50363	14388961	9.798659	0.221800	-0.017593	0.005843	-0.006589	0.001717
50364	14388986	9.828732	0.212121	-0.007614	0.004490	-0.000492	-0.004597
50365	14389011	9.812173	0.203902	-0.008996	0.008018	-0.003080	-0.006096
50366	14389036	9.795586	0.235925	-0.010351	0.001593	-0.002284	-0.004540
50367	14389061	9.790045	0.213240	0.005543	0.004929	0.000107	0.000794
50368	14389086	9.804338	0.208096	0.014509	0.005996	-0.003234	0.000319
50369	14389111	9.798958	0.227702	-0.000250	0.002171	0.000325	0.001699
50370	14389136	9.800890	0.226868	-0.003151	0.006241	0.000703	-0.004408
50371	14389161	9.779748	0.239343	0.003132	0.002618	-0.002269	-0.005372
50372	14389186	9.781532	0.211380	0.000787	0.006275	-0.000329	-0.003830
50373	14389211	9.802230	0.230003	0.004473	0.005494	-0.001235	0.002895
50374	14389236	9.806853	0.209432	-0.007493	0.001682	-0.000468	-0.001194
50375	14389261	9.788680	0.228079	-0.034290	0.005734	-0.001042	0.000653
50376	14389286	9.797284	0.236540	-0.055874	0.001729	-0.001687	0.005153
50377	14389311	9.791822	0.220549	-0.065918	0.000142	-0.000302	0.001445
50378	14389336	9.782923	0.225470	-0.021768	0.004955	-0.000863	-0.000878
50379	14389361	9.793375	0.226548	-0.019987	0.001602	-0.006352	-0.002058
50380	14389386	9.804605	0.213755	-0.041026	0.002132	0.001025	-0.001760
50381	14389411	9.812766	0.202216	-0.026224	0.002800	-0.001544	-0.001262
50382	14389436	9.778474	0.240659	-0.025151	-0.000355	-0.003353	-0.003375
50383	14389461	9.808876	0.216095	-0.040625	0.002192	-0.004523	0.002506
50384	14389486	9.784227	0.249629	-0.051033	0.001851	-0.001889	0.000024
50385	14389511	9.782234	0.243052	-0.021780	-0.001323	-0.001045	-0.004464
50386	14389536	9.794182	0.225153	0.007442	0.000581	0.002098	-0.000082
50387	14389561	9.813952	0.217241	-0.016706	-0.002867	-0.004876	-0.001207
50388	14389586	9.751230	0.248896	-0.028261	0.001211	0.004314	0.000763
50389	14389611	9.775088	0.246369	-0.028911	-0.002648	0.000550	-0.002387
50390	14389636	9.779922	0.228980	-0.004531	-0.003578	-0.002569	-0.003046
50391	14389661	9.785861	0.256289	-0.019899	-0.006208	-0.002220	-0.000279
50392	14389686	9.799560	0.222660	-0.012248	-0.004764	0.003104	0.001927
50393	14389711	9.804505	0.212450	-0.020897	-0.004378	0.000656	-0.001237
50394	14389736	9.807264	0.217573	-0.015237	0.001764	-0.005382	0.001025
50395	14389761	9.812490	0.252168	-0.005125	-0.006148	0.001845	-0.002377
50396	14389786	9.802358	0.235793	-0.027585	0.000639	0.001968	-0.003031
50397	14389811	9.808859	0.242299	-0.013244	-0.001876	0.000432	-0.004131
50398	14389836	9.803830	0.230481	-0.022859	-0.000283	-0.001478	-0.002030
50399	14389861	9.803389	0.231590	-0.030457	-0.005546	0.001138	-0.003475
50400	14389886	9.791859	0.241082	-0.034266	0.000253	0.001484	-0.008236
50401	14389911	9.796906	0.254247	-0.031393	-0.004029	0.001881	0.000374
50402	14389936	9.791689	0.236625	0.001684	-0.003903	0.001746	-0.002958
50403	14389961	9.784351	0.226998	-0.026023	-0.004037	0.004070	-0.002179
50404	14389986	9.796533	0.211720	-0.038068	0.001468	0.003968	-0.004825
50405	14390011	9.796117	0.241933	-0.032815	-0.004317	0.002970	-0.002824
50406	14390036	9.778953	0.238239	-0.021779	-0.003286	-0.001279	0.000043
50407	14390061	9.803133	0.240723	-0.008856	-0.002959	0.004615	-0.001854
50408	14390086	9.798169	0.213480	0.000650	-0.005876	-0.000614	-0.001232
50409	14390111	9.782293	0.242706	-0.030930	-0.003195	-0.004773	-0.005171
50410	14390136	9.801202	0.249979	-0.023326	-0.009705	-0.001071	-0.002764
50411	14390161	9.796564	0.239900	-0.023781	-0.007193	-0.001603	-0.001556
50412	14390186	9.792392	0.236727	-0.034808	-0.006323	-0.003016	-0.003682
50413	14390211	9.808217	0.225929	-0.030036	-0.004289	-0.000136	-0.003296
50414	14390236	9.807472	0.218677	-0.050655	-0.003518	-0.000449	-0.002651
50415	14390261	9.793459	0.223807	-0.028024	-0.010167	0.001578	-0.001340
50416	14390286	9.796627	0.231686	-0.016605	-0.002995	-0.002232	0.002341
50417	14390311	9.827328	0.215527	-0.020067	-0.005552	-0.000535	0.001127
50418	14390336	9.811495	0.236152	-0.043946	-0.000866	0.000957	-0.002845
50419	14390361	9.807922	0.213652	-0.036319	-0.005269	-0.001180	0.002228
50420	14390386	9.820500	0.230238	-0.022467	-0.003861	-0.003812	-0.004016
50421	14390411	9.814353	0.227768	-0.025764	-0.003634	-0.000434	0.001903
50422	14390436	9.802000	0.228271	-0.031896	0.002658	0.000955	-0.002791
50423	14390461	9.814204	0.239753	-0.025279	-0.002849	-0.001536	-0.007029
50424	14390486	9.798893	0.238839	-0.012792	0.000483	-0.001474	-0.003763
50425	14390511	9.796518	0.245588	-0.026628	-0.003476	-0.001402	0.000550
50426	14390536	9.808027	0.234759	-0.020875	-0.008634	0.003867	0.000976
50427	14390561	9.768420	0.261667	0.018580	-0.004417	0.004332	0.000142
50428	14390586	9.781588	0.256784	-0.022798	-0.004926	-0.004016	-0.000034
50429	14390611	9.783048	0.252457	-0.019330	0.000812	0.000739	0.000682
50430	14390636	9.802792	0.246516	-0.042975	-0.002879	-0.000568	-0.005214
50431	14390661	9.803860	0.224735	-0.015649	-0.003064	-0.002632	-0.003698
50432	14390686	9.780327	0.247420	-0.030411	-0.006075	-0.000687	-0.004886
50433	14390711	9.794517	0.256609	-0.034336	-0.003536	-0.003405	0.001504
50434	14390736	9.792338	0.235133	-0.022855	-0.007720	-0.005172	-0.002345
50435	14390761	9.802998	0.226878	-0.035260	0.000210	0.001566	-0.000922
50436	14390786	9.785307	0.230422	-0.033768	-0.008887	-0.000276	0.000894
50437	14390811	9.797870	0.236163	0.006423	-0.003494	-0.000894	-0.002337
50438	14390836	9.812014	0.224968	-0.026289	-0.000040	-0.007167	-0.001799
50439	14390861	9.787604	0.237080	-0.031373	-0.006352	0.002153	-0.004230
50440	14390886	9.818703	0.222644	-0.024899	-0.005925	-0.005329	-0.001070
50441	14390911	9.784752	0.230715	-0.020832	-0.007045	-0.000180	-0.001103
50442	14390936	9.804614	0.198469	-0.009385	-0.002052	0.000308	0.002798
50443	14390961	9.806717	0.251427	0.005419	-0.001320	-0.000468	0.001124
50444	14390986	9.788399	0.243069	-0.018474	-0.005315	-0.000218	-0.002708
50445	14391011	9.798290	0.210336	-0.013739	-0.002751	-0.003976	0.002074
50446	14391036	9.758812	0.231759	0.011421	-0.000188	-0.001927	0.000794
50447	14391061	9.803501	0.242327	0.004534	-0.002927	0.004238	0.005646
50448	14391086	9.784904	0.257693	-0.022308	-0.003745	-0.002694	0.004202
50449	14391111	9.821584	0.249418	-0.007115	-0.000639	-0.001870	0.002331
50450	14391136	9.793836	0.260036	-0.007488	0.000963	-0.001977	-0.000942
50451	14391161	9.786819	0.255399	-0.019454	0.004865	-0.004238	-0.002182
50452	14391186	9.804111	0.241272	-0.013763	-0.000755	-0.004655	-0.000893
50453	14391211	9.797051	0.235587	-0.016101	0.002611	-0.001955	-0.005814
50454	14391236	9.804302	0.230477	-0.022397	0.001103	-0.004752	-0.000896
50455	14391261	9.795095	0.247057	-0.030991	0.005205	-0.004348	0.003077
50456	14391286	9.800288	0.246130	-0.021846	0.005344	-0.001130	-0.003830
50457	14391311	9.813722	0.232766	-0.011389	0.004154	-0.001526	0.002520
50458	14391336	9.796350	0.247636	-0.002723	0.005281	-0.005196	-0.001545
50459	14391361	9.802360	0.244588	-0.045854	0.001960	-0.003114	0.000720
50460	14391386	9.797775	0.232748	-0.050658	0.004153	-0.003794	-0.000896
50461	14391411	9.814310	0.233603	-0.031108	-0.005360	-0.004740	-0.000492
50462	14391436	9.773479	0.229042	-0.043224	0.001301	0.005458	-0.002185
50463	14391461	9.776068	0.250808	-0.042885	-0.003307	-0.002757	0.000612
50464	14391486	9.779731	0.259842	-0.037619	-0.003253	-0.004831	-0.003698
50465	14391511	9.793904	0.237498	-0.051100	-0.007772	-0.003625	-0.004005
50466	14391536	9.824517	0.227917	-0.052225	-0.005664	-0.003521	-0.004140
50467	14391561	9.792773	0.237934	-0.020379	-0.007324	-0.001416	-0.003546
50468	14391586	9.796526	0.247260	-0.031905	-0.003751	-0.001490	-0.008364
50469	14391611	9.788702	0.262723	-0.030883	-0.010633	0.002083	-0.002296
50470	14391636	9.790262	0.244456	-0.013731	-0.004318	-0.003693	-0.004846
50471	14391661	9.814313	0.237088	-0.039608	-0.007200	0.002721	-0.004041
50472	14391686	9.795405	0.232840	-0.053419	-0.007385	0.002196	-0.007762
50473	14391711	9.806080	0.232730	-0.006592	-0.006495	-0.001863	-0.007205
50474	14391736	9.796946	0.239222	-0.007424	-0.002363	0.001770	-0.003605
50475	14391761	9.809576	0.235102	-0.038697	-0.000289	-0.001027	-0.001581
50476	14391786	9.779072	0.254908	0.003642	-0.004426	0.000387	0.000116
50477	14391811	9.812437	0.208779	0.013051	-0.003488	-0.003351	-0.002991
50478	14391836	9.799921	0.237562	-0.023243	-0.010134	0.004743	-0.000297
50479	14391861	9.814209	0.233304	-0.012851	-0.004901	-0.003046	-0.000225
50480	14391886	9.815132	0.236728	-0.016220	-0.001977	-0.002293	-0.001067
50481	14391911	9.806053	0.228201	0.006392	-0.003400	-0.001928	-0.002855
50482	14391936	9.823482	0.245069	0.003829	-0.003383	-0.006773	-0.003329
50483	14391961	9.793085	0.242916	-0.005554	-0.001778	-0.000475	-0.000860
50484	14391986	9.829741	0.211267	-0.015802	0.000705	-0.004372	-0.002368
50485	14392011	9.800678	0.239046	0.004986	-0.000878	-0.000389	0.000677
50486	14392036	9.803144	0.272829	0.002590	-0.003499	0.001234	-0.003666
50487	14392061	9.796023	0.250973	-0.035287	0.003564	-0.001416	0.000401
50488	14392086	9.791842	0.237430	-0.024755	0.000626	-0.005399	0.003850
50489	14392111	9.783130	0.248778	-0.023750	0.001539	-0.006433	-0.002950
50490	14392136	9.806403	0.213933	-0.021429	-0.000247	-0.000776	-0.005101
50491	14392161	9.809292	0.213050	-0.025658	0.004087	0.004546	-0.000468
50492	14392186	9.774284	0.232593	-0.026062	-0.002468	-0.001138	-0.002337
50493	14392211	9.809057	0.202853	-0.042060	-0.002499	-0.004300	-0.001968
50494	14392236	9.800376	0.209866	-0.041086	-0.001247	-0.004919	0.003022
50495	14392261	9.793221	0.246187	-0.032395	-0.002682	-0.002497	-0.003242
50496	14392286	9.791444	0.227413	-0.016587	0.001280	-0.004305	-0.002810
50497	14392311	9.780772	0.246335	-0.026518	-0.006102	0.003015	0.003146
50498	14392336	9.798739	0.229842	-0.045862	-0.005159	-0.003120	-0.001957
50499	14392361	9.786619	0.248281	-0.049621	-0.005648	-0.004299	-0.006963
50500	14392386	9.792191	0.251859	-0.034289	-0.005853	-0.001061	0.001004
50501	14392411	9.800885	0.238109	-0.025248	-0.001387	-0.000991	-0.003430
50502	14392436	9.830750	0.243473	-0.012423	-0.006939	-0.001211	-0.000730
50503	14392461	9.790368	0.245626	-0.034275	-0.000669	-0.000830	0.002857
50504	14392486	9.803909	0.226314	-0.029995	-0.002299	0.002043	0.000435
50505	14392511	9.825760	0.228437	-0.023924	-0.003152	-0.001469	-0.001052
50506	14392536	9.798961	0.238000	-0.021358	-0.006594	-0.000238	-0.003093
50507	14392561	9.791298	0.244177	-0.028965	-0.005680	0.001660	0.002176
50508	14392586	9.816323	0.191566	-0.039221	-0.005460	-0.004035	-0.004463
50509	14392611	9.798527	0.229797	-0.011788	-0.000407	-0.001159	-0.000867
50510	14392636	9.784943	0.255421	-0.024169	-0.004210	0.001615	-0.000843
50511	14392661	9.787363	0.249210	-0.018951	-0.006504	-0.002693	-0.000603
50512	14392686	9.804806	0.228690	-0.024284	-0.006372	0.000533	-0.004563
50513	14392711	9.807926	0.227128	0.013622	-0.004540	0.001936	0.000054
50514	14392736	9.776042	0.242968	-0.021712	-0.003004	0.001699	-0.003472
50515	14392761	9.798553	0.227479	-0.012276	-0.000705	-0.000407	-0.005029
50516	14392786	9.809359	0.235491	-0.003733	-0.004037	-0.001608	0.002474
50517	14392811	9.801070	0.218012	-0.012752	-0.006802	-0.001729	-0.003485
50518	14392836	9.773524	0.244533	-0.004998	-0.007695	-0.003479	0.001772
50519	14392861	9.782028	0.264558	-0.033765	-0.003831	-0.004452	-0.000814
50520	14392886	9.814279	0.228133	-0.013758	-0.004834	0.000826	-0.003478
50521	14392911	9.785613	0.238367	-0.021760	-0.004566	0.002378	-0.005452
50522	14392936	9.772799	0.242199	-0.035639	-0.002207	-0.001328	-0.004452
50523	14392961	9.808111	0.220769	-0.004195	-0.001934	-0.001444	0.000289
50524	14392986	9.806039	0.238900	-0.013721	-0.005239	-0.000140	0.002480
50525	14393011	9.811753	0.241399	-0.018579	-0.003675	-0.001085	0.001197
50526	14393036	9.805663	0.242549	-0.036313	0.000857	-0.004685	0.001934
50527	14393061	9.798789	0.228001	-0.050657	-0.001800	-0.003901	0.000209
50528	14393086	9.792401	0.234695	-0.032364	-0.003766	-0.000049	0.003125
50529	14393111	9.793216	0.241295	-0.024690	-0.008729	0.000696	0.000383
50530	14393136	9.812848	0.231573	-0.021462	-0.003013	-0.002186	-0.003752
50531	14393161	9.782319	0.243757	-0.038573	-0.004102	-0.004132	-0.001839
50532	14393186	9.797742	0.232251	-0.043870	-0.006895	0.000779	-0.007319
50533	14393211	9.778433	0.240505	-0.018910	-0.004889	-0.001495	-0.001240
50534	14393236	9.778808	0.242300	-0.005948	-0.004140	-0.002781	-0.002728
50535	14393261	9.795793	0.211947	0.002094	-0.003119	-0.002427	0.001507
50536	14393286	9.798747	0.251677	-0.016105	-0.004525	0.001612	-0.000073
50537	14393311	9.794201	0.236961	-0.022292	-0.006691	0.001323	0.001346
50538	14393336	9.788518	0.235059	-0.020385	-0.005236	-0.000867	-0.003481
50539	14393361	9.794601	0.242212	-0.019436	-0.005224	-0.001055	-0.003745
50540	14393386	9.796737	0.260655	-0.015617	-0.003451	-0.000115	-0.001366
50541	14393411	9.778788	0.249492	-0.017443	-0.002082	-0.000665	0.002731
50542	14393436	9.809743	0.249541	-0.019024	-0.004147	0.001414	-0.002190
50543	14393461	9.820112	0.223178	-0.024383	-0.002445	-0.002174	-0.005363
50544	14393486	9.793982	0.217127	-0.022295	-0.005300	-0.000735	-0.004838
50545	14393511	9.793804	0.244027	-0.047226	-0.000796	-0.001295	-0.001444
50546	14393536	9.811936	0.233620	-0.032009	-0.008281	-0.001696	-0.003353
50547	14393561	9.813653	0.239487	-0.012371	-0.005373	-0.000478	-0.002964
50548	14393586	9.787695	0.226069	-0.024209	-0.005387	-0.001962	-0.003166
50549	14393611	9.792338	0.243916	-0.040526	-0.007445	-0.001673	-0.002009
50550	14393636	9.790695	0.218093	-0.031394	-0.008056	-0.000449	0.000058
50551	14393661	9.797521	0.243334	-0.030955	-0.004853	-0.000204	0.001328
50552	14393686	9.790453	0.238634	-0.035255	-0.007749	-0.000392	-0.004624
50553	14393711	9.801550	0.226906	-0.033797	-0.005189	0.003718	-0.006670
50554	14393736	9.787337	0.228308	-0.048159	-0.002570	0.000024	-0.003098
50555	14393761	9.789578	0.270319	-0.033771	-0.008412	0.002967	-0.001206
50556	14393786	9.809404	0.242953	-0.027636	-0.003555	0.001240	0.000310
50557	14393811	9.789024	0.243477	-0.043805	0.001875	0.003402	-0.003091
50558	14393836	9.816046	0.215253	-0.043542	-0.005926	-0.002606	0.003561
50559	14393861	9.794836	0.238367	-0.047719	-0.011039	-0.001483	-0.003666
50560	14393886	9.804101	0.253562	-0.038623	-0.006360	0.000340	-0.005975
50561	14393911	9.794765	0.266330	-0.016554	-0.011960	0.001808	0.000079
50562	14393936	9.789226	0.240322	0.009350	-0.006980	-0.000249	-0.004247
50563	14393961	9.814183	0.235220	-0.012348	-0.003371	-0.000958	-0.003234
50564	14393986	9.796897	0.250858	-0.023222	-0.009477	0.003906	-0.004598
50565	14394011	9.794763	0.265320	-0.015609	-0.004272	-0.000061	0.003833
50566	14394036	9.790526	0.260526	-0.012223	-0.007766	0.000583	-0.001930
50567	14394061	9.795321	0.258230	-0.012763	-0.001679	-0.003515	-0.000684
50568	14394086	9.813205	0.247934	-0.035303	-0.002487	0.001447	-0.005214
50569	14394111	9.782338	0.228096	-0.009333	-0.007807	-0.002322	-0.000019
50570	14394136	9.797141	0.228980	-0.018458	-0.002821	0.001952	-0.003989
50571	14394161	9.799422	0.205836	-0.031939	-0.002204	-0.001122	0.001578
50572	14394186	9.808829	0.233968	0.006848	-0.001788	-0.002490	-0.005169
50573	14394211	9.803593	0.241621	-0.009450	-0.002792	-0.000679	0.001134
50574	14394236	9.795406	0.255945	-0.022835	-0.001770	-0.002269	0.005737
50575	14394261	9.813760	0.226077	-0.003712	-0.008510	-0.000402	-0.001808
50576	14394286	9.816133	0.225075	0.002007	-0.003038	-0.001338	-0.002275
50577	14394311	9.797801	0.223929	-0.037587	-0.007504	0.002731	0.003658
50578	14394336	9.784576	0.246315	-0.023702	-0.002255	0.001016	0.003962
50579	14394361	9.760633	0.264784	-0.039902	-0.003980	-0.001211	0.005047
50580	14394386	9.776063	0.242511	-0.025636	-0.001253	-0.002727	0.001311
50581	14394411	9.801791	0.215206	-0.048699	-0.000668	-0.001296	-0.002795
50582	14394436	9.801973	0.226677	-0.025208	-0.001332	-0.000069	0.003630
50583	14394461	9.814241	0.238361	-0.028248	-0.001967	-0.007404	-0.005899
50584	14394486	9.832275	0.214628	-0.048339	-0.002962	0.002611	0.000373
50585	14394511	9.819102	0.201146	-0.046389	0.000504	0.000080	-0.001384
50586	14394536	9.776841	0.224232	-0.036093	-0.001319	0.001080	-0.002906
50587	14394561	9.794703	0.250290	-0.051169	0.000449	-0.008455	-0.001867
50588	14394586	9.810238	0.215501	-0.029054	-0.002272	0.001067	-0.001690
50589	14394611	9.817319	0.236008	-0.060770	-0.001849	0.001523	-0.002325
50590	14394636	9.805327	0.239105	-0.052182	-0.005105	-0.007327	-0.006340
50591	14394661	9.795034	0.215344	-0.034758	-0.006570	-0.000745	0.000557
50592	14394686	9.811960	0.234626	-0.036759	-0.000529	0.002384	-0.002842
50593	14394711	9.798439	0.242263	-0.023291	-0.004314	-0.001226	0.001705
50594	14394736	9.802565	0.213798	-0.017557	0.000645	-0.000374	-0.004205
50595	14394761	9.790623	0.260758	-0.027588	-0.007798	-0.002517	-0.000215
50596	14394786	9.791795	0.247231	-0.037164	-0.000483	-0.001232	-0.004014
50597	14394811	9.799340	0.252484	-0.035745	-0.007917	0.001027	-0.004297
50598	14394836	9.783712	0.235886	-0.016004	-0.000799	0.000702	-0.004637
50599	14394861	9.793168	0.235777	-0.006021	-0.002234	-0.000089	0.001259
50600	14394886	9.809171	0.217597	-0.013783	-0.005637	-0.004354	-0.002603
50601	14394911	9.793809	0.225477	-0.009861	-0.005513	-0.002162	-0.004579
50602	14394936	9.785882	0.252555	-0.017535	0.000046	-0.005808	-0.003584
50603	14394961	9.803522	0.219192	-0.029072	-0.007701	0.000457	-0.000776
50604	14394986	9.783760	0.236509	-0.025156	-0.005148	0.000231	-0.005268
50605	14395011	9.796588	0.235074	-0.017051	-0.002712	-0.001462	-0.002401
50606	14395036	9.791962	0.221699	-0.012169	-0.002269	0.004679	-0.005321
50607	14395061	9.810695	0.246594	-0.011777	-0.002800	0.003377	-0.004047
50608	14395086	9.825680	0.223346	0.000579	-0.000666	0.002448	-0.005658
50609	14395111	9.795174	0.222907	0.004008	-0.001027	-0.002606	-0.006001
50610	14395136	9.782976	0.249862	-0.002658	0.001132	-0.005330	0.000264
50611	14395161	9.772523	0.241941	0.009463	0.001284	0.000168	0.001699
50612	14395186	9.800601	0.216999	-0.013230	-0.001071	-0.000651	-0.000094
50613	14395211	9.790276	0.243029	-0.014112	0.000326	0.001827	-0.002074
50614	14395236	9.801255	0.247147	-0.026655	0.002664	0.000562	-0.003502
50615	14395261	9.796492	0.216890	-0.042959	0.000997	-0.002739	0.005086
50616	14395286	9.793083	0.230415	-0.056887	0.000004	-0.006330	-0.000766
50617	14395311	9.804649	0.208845	-0.037167	0.003542	0.003830	0.002804
50618	14395336	9.787637	0.233783	-0.032332	0.001960	0.000696	-0.001056
50619	14395361	9.809144	0.263264	-0.023361	0.001223	-0.002228	0.001623
50620	14395386	9.797697	0.245739	-0.063140	-0.001806	-0.005898	-0.000511
50621	14395411	9.797436	0.242632	-0.015713	-0.001329	-0.004470	0.000270
50622	14395436	9.795037	0.244101	-0.016589	0.000556	-0.001737	-0.005946
50623	14395461	9.798485	0.205456	-0.034752	-0.002532	0.001065	0.000556
50624	14395486	9.782258	0.248937	-0.040509	-0.001180	-0.002779	0.003746
50625	14395511	9.797956	0.250070	-0.038681	0.000219	-0.002560	0.002716
50626	14395536	9.788715	0.253409	-0.013192	-0.000665	-0.001033	0.000483
50627	14395561	9.792918	0.257256	-0.007026	-0.002091	-0.005601	-0.009607
50628	14395586	9.784627	0.287872	-0.037617	-0.001895	-0.000794	0.000042
50629	14395611	9.787244	0.262600	-0.026158	0.001007	-0.003265	0.000718
50630	14395636	9.803295	0.233725	-0.021963	0.002366	-0.006214	0.000834
50631	14395661	9.794146	0.248092	-0.033850	0.002892	-0.004332	0.000513
50632	14395686	9.800963	0.230458	-0.021887	-0.002187	-0.001770	-0.001319
50633	14395711	9.820005	0.232549	-0.025243	0.003006	0.002728	0.004785
50634	14395736	9.822740	0.237689	-0.015748	-0.002231	0.000171	0.003506
50635	14395761	9.830827	0.208203	-0.033466	0.006270	0.002386	0.000542
50636	14395786	9.802620	0.212954	-0.023835	0.001991	-0.004546	-0.002882
50637	14395811	9.779721	0.200292	0.006499	0.003350	-0.002511	0.001106
50638	14395836	9.814198	0.195789	-0.012842	0.001353	-0.004224	0.002700
50639	14395861	9.779101	0.233711	-0.035627	-0.000378	-0.000058	-0.000541
50640	14395886	9.802173	0.199850	-0.001692	-0.000048	0.001226	-0.004454
50641	14395911	9.814568	0.219033	-0.042945	0.001961	0.002958	0.001779
50642	14395936	9.797155	0.240242	-0.044345	0.000054	0.002472	0.001004
50643	14395961	9.782751	0.209554	-0.038568	-0.000437	-0.004317	0.002837
50644	14395986	9.790431	0.205475	-0.040962	0.001034	-0.000553	-0.002666
50645	14396011	9.791832	0.242860	-0.034225	0.001924	0.006115	-0.001991
50646	14396036	9.767199	0.229157	-0.028869	-0.002708	0.000806	0.000949
50647	14396061	9.784067	0.217632	-0.036164	0.002979	0.000967	-0.001121
50648	14396086	9.789109	0.239365	-0.049562	-0.003223	0.002071	-0.008927
50649	14396111	9.803361	0.228511	-0.020881	-0.007090	0.005835	0.000086
50650	14396136	9.808755	0.225126	-0.040039	-0.004512	0.002970	0.000057
50651	14396161	9.794493	0.224581	-0.043847	-0.003433	0.002779	-0.007893
50652	14396186	9.812525	0.229489	-0.041119	-0.004555	-0.004148	-0.004339
50653	14396211	9.792310	0.278455	-0.029956	-0.005133	0.001846	-0.007764
50654	14396236	9.819860	0.240666	-0.019532	-0.007422	0.001289	-0.006546
50655	14396261	9.794220	0.240012	-0.028550	-0.000121	-0.000715	-0.005929
50656	14396286	9.773116	0.278736	-0.005889	0.002132	0.001538	-0.001754
50657	14396311	9.791880	0.265259	-0.008369	-0.002037	0.003591	-0.002953
50658	14396336	9.808218	0.248221	-0.000363	-0.010118	-0.002170	-0.000396
50659	14396361	9.818851	0.238451	-0.005184	-0.005086	-0.001045	0.000875
50660	14396386	9.784100	0.241518	-0.013198	-0.004280	-0.002851	-0.003879
50661	14396411	9.776962	0.280342	-0.016013	-0.001422	-0.001371	0.000356
50662	14396436	9.770426	0.277688	-0.031296	-0.002941	-0.000238	-0.003490
50663	14396461	9.785790	0.254150	-0.004116	-0.007115	-0.003728	0.001383
50664	14396486	9.793252	0.229628	-0.006488	-0.003999	-0.000966	0.000423
50665	14396511	9.780092	0.264435	-0.028943	-0.006723	0.002283	0.001287
50666	14396536	9.812286	0.235697	-0.017617	-0.005864	-0.002477	0.004523
50667	14396561	9.810664	0.221702	-0.033479	-0.003356	-0.005153	0.001360
50668	14396586	9.828424	0.207593	-0.027266	-0.006078	-0.000224	0.000432
50669	14396611	9.822591	0.226775	-0.046433	-0.006889	-0.002624	0.002345
50670	14396636	9.800164	0.220083	-0.026631	-0.001580	0.001204	-0.002395
50671	14396661	9.784987	0.204404	-0.004971	-0.005183	0.001594	-0.004685
50672	14396686	9.793727	0.243872	-0.035359	-0.002447	-0.005981	-0.002173
50673	14396711	9.790974	0.237266	-0.038091	0.000328	-0.000374	-0.002597
50674	14396736	9.788971	0.211213	-0.047215	-0.000826	-0.000331	-0.001630
50675	14396761	9.797762	0.218538	-0.020345	-0.000393	0.002326	-0.001371
50676	14396786	9.800731	0.215887	-0.032836	-0.004691	0.006711	-0.001904
50677	14396811	9.768611	0.227662	-0.021648	-0.002271	0.001197	0.001135
50678	14396836	9.790355	0.199383	-0.016051	-0.004967	-0.000790	-0.000213
50679	14396861	9.790654	0.212608	-0.014121	-0.002840	-0.001326	0.001764
50680	14396886	9.800003	0.231866	-0.023780	-0.003976	0.000007	-0.001873
50681	14396911	9.801581	0.256440	-0.020916	-0.005312	-0.001624	0.005746
50682	14396936	9.801048	0.211089	0.003487	-0.002000	-0.003447	0.000538
50683	14396961	9.811709	0.217573	-0.038745	-0.003485	-0.005744	-0.004032
50684	14396986	9.796053	0.242252	-0.024228	-0.004186	0.000905	0.000694
50685	14397011	9.798823	0.244046	-0.012730	-0.002576	0.002415	-0.001742
50686	14397036	9.796615	0.233628	-0.020014	-0.004880	-0.005431	0.003612
50687	14397061	9.816051	0.243444	-0.023873	-0.004935	-0.001884	-0.000031
50688	14397086	9.806226	0.254356	0.001550	0.002091	-0.005515	-0.001664
50689	14397111	9.814048	0.241728	-0.004675	-0.000738	-0.000840	0.000417
50690	14397136	9.797348	0.254094	-0.023815	0.000335	-0.004505	0.001737
50691	14397161	9.796236	0.270321	-0.031989	-0.004737	-0.005682	0.005533
50692	14397186	9.789266	0.250634	-0.019968	-0.002517	-0.007395	0.002825
50693	14397211	9.787397	0.256140	-0.037679	-0.002828	-0.006050	-0.001720
50694	14397236	9.795552	0.237309	-0.008885	-0.000294	-0.000897	-0.000931
50695	14397261	9.809929	0.223038	0.005886	-0.004016	-0.000708	-0.000861
50696	14397286	9.782987	0.258186	-0.019883	-0.003819	-0.001028	-0.002521
50697	14397311	9.813279	0.237292	-0.024827	-0.002316	-0.001585	-0.000226
50698	14397336	9.774584	0.245759	-0.024088	-0.003716	0.002535	0.000381
50699	14397361	9.799326	0.246067	-0.020883	-0.001197	-0.000657	-0.000544
50700	14397386	9.782868	0.241937	-0.046206	0.000602	-0.000753	0.000422
50701	14397411	9.792812	0.239511	-0.034259	-0.004558	0.002648	0.001408
50702	14397436	9.806286	0.233187	-0.041095	-0.001322	-0.002861	-0.001518
50703	14397461	9.799072	0.207751	-0.055466	0.001125	-0.003789	-0.005575
50704	14397486	9.800041	0.203837	-0.051111	-0.001618	-0.001508	-0.000037
50705	14397511	9.797232	0.236974	-0.047263	-0.003657	-0.002125	-0.002341
50706	14397536	9.816965	0.223588	-0.054535	-0.000565	-0.000592	-0.004327
50707	14397561	9.795783	0.199947	-0.046258	-0.000618	0.001025	-0.003293
50708	14397586	9.770838	0.222722	-0.064322	-0.000593	0.002325	-0.004053
50709	14397611	9.811209	0.219001	-0.039037	-0.005503	0.009987	-0.004645
50710	14397636	9.811063	0.228447	-0.035281	-0.003202	0.003757	-0.007054
50711	14397661	9.806826	0.226088	-0.037161	-0.002213	0.002739	-0.006613
50712	14397686	9.785620	0.250104	-0.046223	-0.007221	0.001299	-0.004488
50713	14397711	9.822671	0.245891	-0.020086	-0.006364	-0.003533	-0.003561
50714	14397736	9.803823	0.240354	-0.043376	-0.003943	0.005168	-0.004543
50715	14397761	9.804156	0.245371	-0.030446	-0.004384	0.004771	-0.005700
50716	14397786	9.761182	0.237183	0.004234	-0.003019	0.000016	-0.004315
50717	14397811	9.803562	0.244512	-0.009865	-0.002733	0.003581	-0.002247
50718	14397836	9.806154	0.230936	-0.016585	-0.004882	0.002442	-0.001608
50719	14397861	9.814255	0.265568	-0.009963	-0.005032	-0.000730	-0.001432
50720	14397886	9.815042	0.229116	0.014508	-0.002907	0.000668	-0.003228
50721	14397911	9.785275	0.254551	0.002178	-0.005366	-0.000536	-0.001618
50722	14397936	9.810045	0.249451	0.011150	-0.005376	0.000507	0.003643
50723	14397961	9.815099	0.234237	-0.005180	-0.002952	-0.004447	-0.007166
50724	14397986	9.799295	0.269716	0.014513	-0.001159	-0.003952	-0.000943
50725	14398011	9.779994	0.265640	-0.014113	-0.002865	-0.002687	-0.001958
50726	14398036	9.775758	0.249585	0.008894	-0.003265	-0.006123	-0.000368
50727	14398061	9.782714	0.237178	-0.012728	-0.004433	-0.005557	0.001238
50728	14398086	9.787339	0.241794	0.000699	-0.002982	-0.004891	-0.000560
50729	14398111	9.811282	0.206880	-0.025722	-0.001521	-0.000399	0.000548
50730	14398136	9.805025	0.210589	-0.025226	-0.003362	0.001316	0.002936
50731	14398161	9.808104	0.231512	-0.023771	-0.004010	-0.000837	-0.001501
50732	14398186	9.802341	0.242562	-0.037735	-0.004546	-0.004205	-0.001001
50733	14398211	9.787965	0.237274	-0.014119	-0.002921	-0.000755	-0.000727
50734	14398236	9.800844	0.240915	-0.023790	-0.000924	-0.003499	-0.002865
50735	14398261	9.807603	0.238307	-0.033437	-0.001888	-0.003386	-0.002478
50736	14398286	9.788810	0.221139	-0.041912	0.002006	-0.000598	-0.001703
50737	14398311	9.781590	0.229054	-0.044799	0.004196	-0.002813	0.003926
50738	14398336	9.794768	0.237647	-0.037172	0.002784	0.001684	0.004010
50739	14398361	9.796781	0.236522	-0.051544	-0.003138	0.000024	0.000811
50740	14398386	9.788738	0.234106	-0.053471	0.007431	-0.004449	-0.002573
50741	14398411	9.773904	0.226402	-0.027975	-0.002098	-0.002353	0.000989
50742	14398436	9.771128	0.228504	-0.045749	0.001971	-0.005437	0.003020
50743	14398461	9.783316	0.202990	-0.040498	0.006965	-0.005813	-0.000528
50744	14398486	9.813958	0.227022	-0.037780	0.003535	-0.002445	0.000972
50745	14398511	9.798175	0.229166	-0.032863	0.003397	-0.000054	0.000086
50746	14398536	9.774121	0.250256	-0.034194	0.000085	0.001040	-0.003676
50747	14398561	9.781268	0.248919	-0.032865	0.008170	-0.003666	-0.004561
50748	14398586	9.782803	0.234446	-0.020346	0.003301	-0.002961	0.001103
50749	14398611	9.792061	0.251490	-0.011781	0.003779	-0.001726	0.002198
50750	14398636	9.792696	0.242163	-0.019393	-0.000949	0.003745	-0.001992
50751	14398661	9.789247	0.250608	-0.016566	0.004077	-0.001206	0.000720
50752	14398686	9.787750	0.248446	-0.002208	0.000063	-0.003992	0.000401
50753	14398711	9.801653	0.254667	-0.027653	0.000420	-0.002757	0.004376
50754	14398736	9.784046	0.238446	0.003594	-0.000294	-0.001231	-0.004524
50755	14398761	9.809111	0.254438	-0.001792	0.000510	-0.004052	-0.001593
50756	14398786	9.812738	0.233669	-0.007538	-0.009443	-0.000863	0.001654
50757	14398811	9.800938	0.224045	-0.005111	0.002514	-0.004932	-0.004035
50758	14398836	9.790352	0.201870	-0.019419	-0.001416	-0.000280	-0.005154
50759	14398861	9.800742	0.241172	-0.009400	-0.001067	-0.000784	-0.002405
50760	14398886	9.812419	0.234617	-0.035376	-0.001827	-0.003000	-0.001517
50761	14398911	9.805219	0.227497	-0.010897	0.001790	-0.004159	-0.002111
50762	14398936	9.790026	0.231314	-0.025687	-0.001049	-0.003563	-0.001459
50763	14398961	9.813626	0.227604	0.015486	0.000843	0.002225	0.003254
50764	14398986	9.813878	0.226778	-0.025257	0.000659	0.002106	0.006071
50765	14399011	9.783459	0.227603	-0.035709	-0.002983	-0.002757	0.000159
50766	14399036	9.815309	0.229818	-0.029656	-0.004838	-0.007515	-0.004356
50767	14399061	9.813011	0.196486	-0.054963	-0.005496	-0.000411	-0.000660
50768	14399086	9.816188	0.218121	-0.071780	-0.002782	0.000738	-0.001365
50769	14399111	9.787257	0.197933	-0.051980	-0.004137	0.001690	0.003524
50770	14399136	9.784622	0.222772	-0.059649	-0.002673	-0.002362	0.001504
50771	14399161	9.809582	0.209868	-0.065040	-0.002602	-0.001009	-0.002658
50772	14399186	9.788592	0.243608	-0.051531	-0.005269	-0.001968	-0.007208
50773	14399211	9.777719	0.231837	-0.039966	0.001028	-0.002232	-0.000940
50774	14399236	9.793973	0.225376	-0.037119	-0.004737	-0.000010	0.000554
50775	14399261	9.813671	0.213796	-0.040540	-0.005624	0.003658	-0.002177
50776	14399286	9.794590	0.258373	-0.050123	-0.006714	0.001238	-0.005516
50777	14399311	9.789817	0.248431	-0.027999	-0.002670	0.001512	-0.003096
50778	14399336	9.781246	0.245409	-0.022266	-0.001682	-0.001641	-0.001639
50779	14399361	9.770290	0.256012	-0.042330	-0.006512	-0.002818	-0.002334
50780	14399386	9.796497	0.247981	-0.028173	-0.010669	-0.008698	0.003865
50781	14399411	9.814638	0.236656	-0.012837	-0.003666	-0.001475	-0.000802
50782	14399436	9.801656	0.244502	-0.008469	0.000180	-0.001666	-0.001130
50783	14399461	9.785700	0.248099	0.023226	-0.002941	-0.002110	-0.000994
50784	14399486	9.782582	0.244647	-0.005479	-0.000672	-0.001027	0.000483
50785	14399511	9.804714	0.222026	0.002953	-0.002497	-0.006042	0.001033
50786	14399536	9.788364	0.225806	0.021792	-0.003318	-0.002499	-0.000226
50787	14399561	9.789612	0.244936	0.012240	-0.003289	-0.000945	0.003050
50788	14399586	9.808506	0.226861	-0.002726	-0.002046	-0.002089	0.002915
50789	14399611	9.822780	0.236356	-0.019596	-0.009955	-0.001134	-0.000718
50790	14399636	9.817312	0.224701	-0.035403	-0.003345	-0.003864	-0.002544
50791	14399661	9.816870	0.225206	-0.043923	-0.000624	0.004081	0.004546
50792	14399686	9.802037	0.228811	-0.038680	-0.003546	-0.003348	0.000218
50793	14399711	9.782873	0.227277	-0.017506	-0.007300	-0.004318	-0.001891
50794	14399736	9.816683	0.202060	-0.041623	-0.005165	-0.002801	-0.001445
50795	14399761	9.781397	0.234967	-0.024189	-0.004023	-0.002578	-0.000927
50796	14399786	9.814970	0.218412	-0.028658	-0.006068	-0.002816	-0.003751
50797	14399811	9.794526	0.228981	-0.055812	-0.004844	0.001411	-0.001359
50798	14399836	9.785891	0.267182	-0.048236	-0.006875	-0.003278	0.000104
50799	14399861	9.781061	0.230986	-0.040437	-0.002250	0.000158	-0.002916
50800	14399886	9.781683	0.251649	-0.028501	-0.005445	-0.001770	0.000101
50801	14399911	9.822321	0.204313	-0.033053	-0.002584	-0.005469	-0.000255
50802	14399936	9.798556	0.231805	-0.020428	-0.005919	-0.001194	0.000162
50803	14399961	9.795530	0.246506	-0.023766	-0.003837	-0.004058	0.001749
50804	14399986	9.787857	0.227912	-0.055817	-0.004975	0.001478	0.000949
50805	14400011	9.819287	0.251577	-0.024390	-0.002675	-0.004432	0.000840
50806	14400036	9.821075	0.221663	-0.021521	-0.001927	-0.003842	0.000262
50807	14400061	9.800081	0.223301	-0.019963	-0.000766	-0.002271	-0.002612
50808	14400086	9.790715	0.252287	-0.027068	-0.000834	-0.000077	-0.005038
50809	14400111	9.790078	0.229075	-0.031422	0.002909	-0.003502	-0.005962
50810	14400136	9.788111	0.233223	-0.031395	-0.003241	-0.000364	0.004077
50811	14400161	9.819819	0.206906	-0.022472	-0.002317	-0.001314	0.002915
50812	14400186	9.792826	0.240090	-0.035663	-0.000550	0.005032	-0.004245
50813	14400211	9.793141	0.230389	0.010808	-0.003371	0.000975	-0.006056
50814	14400236	9.805235	0.233468	-0.028081	-0.002050	0.001837	-0.005220
50815	14400261	9.778467	0.243158	-0.030852	-0.002901	0.002341	-0.003926
50816	14400286	9.797915	0.242672	-0.015172	-0.001110	-0.003767	-0.004286
50817	14400311	9.801472	0.231037	-0.029495	-0.002934	0.003703	-0.000845
50818	14400336	9.782238	0.231375	0.001189	-0.002794	-0.003345	-0.006650
50819	14400361	9.799126	0.232113	-0.035729	-0.002018	-0.001326	-0.005624
50820	14400386	9.825830	0.205098	0.013035	-0.003399	0.002079	-0.003803
50821	14400411	9.815974	0.204343	-0.010467	-0.006995	-0.003339	0.002655
50822	14400436	9.827339	0.207757	-0.005695	-0.004929	-0.000209	-0.000221
50823	14400461	9.801893	0.226965	-0.010869	-0.005968	-0.001712	-0.001316
50824	14400486	9.798971	0.238963	-0.026704	-0.001232	-0.003234	0.003801
50825	14400511	9.775249	0.266149	-0.018422	-0.000328	-0.001875	-0.001580
50826	14400536	9.783289	0.238444	-0.028987	0.002387	-0.002925	-0.004224
50827	14400561	9.792608	0.217668	-0.031920	0.001153	-0.004429	-0.000642
50828	14400586	9.807970	0.247725	-0.033440	-0.004560	-0.003357	0.002843
50829	14400611	9.814588	0.247832	-0.026241	-0.000915	-0.001827	-0.005884
50830	14400636	9.795910	0.222526	-0.036702	-0.000468	0.000584	-0.000419
50831	14400661	9.787677	0.243195	-0.058213	-0.006886	0.000916	-0.002255
50832	14400686	9.793459	0.238008	-0.055874	-0.001468	-0.002475	-0.002229
50833	14400711	9.806413	0.229093	-0.053517	-0.006358	0.000416	-0.001299
50834	14400736	9.794791	0.249500	-0.064991	-0.001784	0.000052	0.001447
50835	14400761	9.814098	0.217671	-0.041135	-0.002214	-0.003266	-0.004153
50836	14400786	9.774746	0.249103	-0.056766	-0.007474	-0.002572	0.001380
50837	14400811	9.792091	0.249066	-0.010369	-0.008669	-0.005239	0.002848
50838	14400836	9.789639	0.262682	-0.027579	-0.006256	-0.000882	-0.002849
50839	14400861	9.784630	0.239638	-0.018897	-0.004260	-0.000700	0.003755
50840	14400886	9.793361	0.231350	-0.026683	-0.005224	-0.006862	0.002185
50841	14400911	9.802187	0.241655	-0.010801	-0.006123	0.001520	-0.000720
50842	14400936	9.771423	0.254345	0.008937	-0.005566	-0.000291	-0.003415
50843	14400961	9.775390	0.282872	0.001177	-0.000040	-0.006707	0.002690
50844	14400986	9.779122	0.255107	-0.005967	0.003514	-0.004070	-0.003852
50845	14401011	9.795592	0.239335	-0.017661	0.000031	-0.011684	-0.002860
50846	14401036	9.805401	0.240867	0.008800	-0.000645	-0.001608	0.002716
50847	14401061	9.790510	0.222069	-0.008906	-0.000675	-0.004911	0.000007
50848	14401086	9.794171	0.238805	-0.018569	0.004433	-0.008762	0.001509
50849	14401111	9.800532	0.220247	-0.010402	-0.000624	-0.006391	0.004289
50850	14401136	9.788897	0.232283	-0.000812	0.000714	-0.008304	0.003254
50851	14401161	9.781189	0.243701	-0.008840	0.001732	-0.003889	0.003597
50852	14401186	9.801486	0.215833	-0.001367	0.004758	-0.008486	0.005166
50853	14401211	9.802927	0.219332	-0.009005	0.005500	-0.007832	0.001766
50854	14401236	9.812016	0.219068	-0.017200	0.009125	-0.006990	0.003749
50855	14401261	9.801722	0.208613	-0.023882	0.007841	-0.007086	0.001314
50856	14401286	9.782122	0.220882	-0.036680	0.003825	-0.005010	0.006855
50857	14401311	9.800987	0.233465	-0.031499	0.006461	-0.004143	-0.002448
50858	14401336	9.788860	0.199639	-0.005969	0.008379	-0.001380	0.004427
50859	14401361	9.805341	0.191806	-0.037741	0.007251	-0.002247	0.002240
50860	14401386	9.838178	0.204861	-0.058452	0.006378	-0.001228	0.001927
50861	14401411	9.818557	0.196137	-0.025387	0.001800	-0.004880	-0.004946
50862	14401436	9.811890	0.201866	-0.037788	0.006939	-0.005168	-0.001109
50863	14401461	9.806876	0.218863	-0.031954	0.005573	-0.000347	-0.003710
50864	14401486	9.826236	0.198815	-0.041622	-0.001316	-0.000983	-0.001840
50865	14401511	9.811635	0.214910	-0.024283	0.002378	-0.000198	0.002462
50866	14401536	9.788399	0.247473	-0.026657	0.002617	-0.003886	-0.001986
50867	14401561	9.798540	0.231737	-0.017584	0.002164	-0.005570	0.001468
50868	14401586	9.823256	0.235430	-0.017675	-0.002597	-0.001140	-0.002800
50869	14401611	9.803379	0.225158	-0.016124	-0.000609	-0.001037	-0.001259
50870	14401636	9.803756	0.242067	-0.036267	-0.000922	-0.003101	0.001425
50871	14401661	9.794567	0.250898	-0.030502	-0.003275	-0.004059	-0.002614
50872	14401686	9.807324	0.248827	-0.009940	0.000054	-0.001861	-0.000298
50873	14401711	9.791200	0.244408	-0.012305	-0.001927	-0.006223	-0.001414
50874	14401736	9.808241	0.235789	-0.054503	-0.004351	-0.002331	-0.001897
50875	14401761	9.798871	0.254434	-0.040098	-0.001673	-0.001836	-0.001198
50876	14401786	9.806066	0.220609	-0.057413	0.002307	-0.006081	0.000946
50877	14401811	9.777723	0.235801	-0.047643	-0.008655	-0.001957	-0.002843
50878	14401836	9.792317	0.237924	-0.025653	-0.003010	0.000224	0.001454
50879	14401861	9.799914	0.248799	-0.043452	-0.003812	-0.003032	-0.001331
50880	14401886	9.788425	0.238684	-0.015508	0.000280	0.003706	0.002550
50881	14401911	9.814501	0.218389	-0.031994	-0.001197	-0.000457	0.001055
50882	14401936	9.788698	0.230113	-0.040501	0.000657	-0.000685	-0.000615
50883	14401961	9.801076	0.240055	-0.060283	-0.003043	-0.007346	-0.001098
50884	14401986	9.794463	0.227326	-0.043445	0.000869	-0.002876	0.003156
50885	14402011	9.787707	0.216329	-0.006957	0.001048	-0.002949	-0.002174
50886	14402036	9.778055	0.245721	-0.044763	0.003977	-0.000639	-0.004669
50887	14402061	9.800900	0.232742	-0.019024	-0.001213	-0.004071	0.002509
50888	14402086	9.811826	0.207073	-0.037274	-0.001201	-0.002334	0.002643
50889	14402111	9.808755	0.223630	-0.036247	-0.001924	0.002310	-0.000213
50890	14402136	9.805181	0.206530	-0.042480	-0.004575	0.001362	0.004153
50891	14402161	9.799931	0.238498	-0.026670	0.002094	-0.002976	0.005527
50892	14402186	9.807600	0.229457	-0.015670	0.001636	-0.000924	0.002779
50893	14402211	9.817269	0.226595	-0.032502	0.000909	-0.002891	-0.005189
50894	14402236	9.812050	0.233905	-0.051176	0.003594	-0.000641	-0.003134
50895	14402261	9.797910	0.242586	-0.015216	-0.000989	-0.007042	0.004354
50896	14402286	9.818279	0.212458	-0.012848	-0.003365	-0.000948	0.000097
50897	14402311	9.801121	0.207804	-0.002266	-0.004305	-0.003549	0.002010
50898	14402336	9.796942	0.218816	-0.042913	-0.003348	0.000733	0.000942
50899	14402361	9.783886	0.226993	-0.026075	0.000270	0.003502	-0.002201
50900	14402386	9.777891	0.246299	-0.021666	0.002554	0.004455	-0.000016
50901	14402411	9.792768	0.244797	-0.035748	-0.001751	-0.001380	-0.001255
50902	14402436	9.788971	0.239367	-0.025685	-0.001743	-0.005963	-0.001733
50903	14402461	9.803757	0.235740	-0.021405	0.000332	-0.000773	-0.005491
50904	14402486	9.798771	0.208830	-0.008483	0.001210	-0.006108	-0.000201
50905	14402511	9.802313	0.234153	-0.017129	-0.001490	-0.003371	0.001620
50906	14402536	9.789026	0.241508	-0.039595	-0.000854	-0.005369	-0.000323
50907	14402561	9.762244	0.262876	-0.064831	-0.003275	-0.001988	-0.002983
50908	14402586	9.798177	0.230617	-0.036238	-0.002740	-0.000228	0.001447
50909	14402611	9.786466	0.248384	-0.024721	0.000410	-0.003286	-0.005570
50910	14402636	9.793523	0.217155	-0.023265	0.000980	-0.001018	-0.004275
50911	14402661	9.805773	0.238511	-0.046809	-0.004950	0.000308	-0.003037
50912	14402686	9.811113	0.210895	-0.005168	0.003533	-0.004776	-0.003472
50913	14402711	9.805350	0.226410	-0.031456	-0.001089	-0.000145	-0.001514
50914	14402736	9.830009	0.226884	-0.013421	0.000620	-0.003536	-0.001407
50915	14402761	9.817449	0.209438	-0.026761	0.004925	-0.004436	-0.006038
50916	14402786	9.808808	0.211026	-0.019504	0.000982	-0.000751	0.000408
50917	14402811	9.790362	0.245134	-0.032350	-0.001802	-0.001624	0.002782
50918	14402836	9.791684	0.254697	-0.033848	-0.003457	-0.004184	-0.000246
50919	14402861	9.807648	0.232483	-0.029634	-0.001480	-0.003628	0.002894
50920	14402886	9.802925	0.235489	-0.041593	-0.000040	-0.007097	-0.000134
50921	14402911	9.803974	0.229890	-0.045884	-0.000754	-0.004397	0.000961
50922	14402936	9.815052	0.197048	-0.002319	-0.001290	-0.005625	0.004806
50923	14402961	9.796542	0.230020	0.001125	0.004408	-0.003856	-0.000708
50924	14402986	9.799595	0.234957	-0.042546	0.002091	-0.007245	0.003830
50925	14403011	9.786624	0.222808	-0.000285	0.002813	-0.005749	0.001207
50926	14403036	9.779813	0.252149	-0.034759	0.002518	-0.004722	0.001793
50927	14403061	9.803589	0.245548	-0.016140	0.005430	-0.001508	0.001417
50928	14403086	9.812255	0.245879	-0.031530	0.000344	-0.002626	0.002515
50929	14403111	9.799284	0.236126	0.006429	0.000991	-0.000805	0.001113
50930	14403136	9.777970	0.243019	-0.026140	0.002927	-0.007361	0.001971
50931	14403161	9.809652	0.203725	-0.065127	0.003608	-0.007100	-0.001559
50932	14403186	9.807343	0.229014	-0.048749	0.000952	-0.001849	-0.001007
50933	14403211	9.807240	0.204555	-0.060781	0.001967	-0.007574	-0.000148
50934	14403236	9.755967	0.253302	-0.031220	-0.000040	-0.000697	-0.002217
50935	14403261	9.791392	0.200082	-0.030456	-0.003585	-0.001928	0.000222
50936	14403286	9.791565	0.227733	-0.039107	-0.005825	-0.002356	-0.000544
50937	14403311	9.795663	0.244473	-0.040561	-0.001627	-0.003712	-0.005054
50938	14403336	9.779506	0.231070	-0.019357	-0.000063	-0.002320	-0.002226
50939	14403361	9.819880	0.240678	-0.021957	-0.003830	-0.000773	-0.003882
50940	14403386	9.807960	0.216719	-0.049165	-0.003482	0.002463	-0.005208
50941	14403411	9.821725	0.216245	-0.038791	-0.003366	-0.002766	0.000532
50942	14403436	9.810217	0.211966	-0.017602	-0.005791	-0.003059	0.001948
50943	14403461	9.806662	0.238795	-0.036331	-0.003491	-0.005284	-0.001724
50944	14403486	9.772767	0.249885	-0.047140	0.002404	-0.000846	0.002261
50945	14403511	9.782047	0.222695	-0.029953	-0.002778	-0.003068	0.003420
50946	14403536	9.810662	0.226146	-0.042559	-0.004064	-0.003293	-0.001203
50947	14403561	9.806591	0.238602	-0.024322	-0.003375	-0.002639	-0.000168
50948	14403586	9.796747	0.229173	-0.031895	-0.003371	-0.001092	-0.004335
50949	14403611	9.777439	0.247765	-0.027493	0.002004	-0.000340	0.001177
50950	14403636	9.815179	0.208186	-0.043067	0.000471	-0.003023	-0.001651
50951	14403661	9.823256	0.215574	-0.054102	0.000961	-0.002366	-0.002748
50952	14403686	9.817213	0.229811	-0.029172	0.005844	-0.004801	-0.000978
50953	14403711	9.808588	0.234952	-0.032023	-0.000955	-0.004274	0.000130
50954	14403736	9.832655	0.215333	-0.032102	-0.003038	-0.003403	-0.001909
50955	14403761	9.798180	0.232994	-0.040094	-0.000869	-0.004317	0.007321
50956	14403786	9.813441	0.229818	-0.034916	0.001852	-0.003834	0.001921
50957	14403811	9.791017	0.232899	-0.035773	-0.001597	-0.004348	-0.000247
50958	14403836	9.780433	0.240785	-0.033262	0.003642	-0.001469	0.001934
50959	14403861	9.796743	0.224668	-0.020886	-0.004144	-0.000839	-0.001696
50960	14403886	9.798574	0.222518	-0.004642	0.001068	-0.003584	0.000639
50961	14403911	9.809846	0.203960	-0.019538	-0.001560	-0.003178	0.000529
50962	14403936	9.809367	0.206762	-0.024810	0.002621	-0.003220	0.009237
50963	14403961	9.803383	0.223274	-0.014199	-0.004111	-0.001620	-0.001961
50964	14403986	9.816887	0.216462	-0.029180	-0.003141	-0.001653	0.002848
50965	14404011	9.803284	0.202628	-0.032419	-0.002971	-0.003208	0.000401
50966	14404036	9.803957	0.196777	-0.054035	0.001030	-0.002301	0.000073
50967	14404061	9.804654	0.213262	-0.044449	0.001065	-0.007330	0.002807
50968	14404086	9.809362	0.221067	-0.053083	0.000215	-0.000696	0.000532
50969	14404111	9.816467	0.211248	-0.027194	-0.006041	0.000747	-0.000852
50970	14404136	9.793253	0.194580	-0.011770	0.000425	-0.003071	0.004114
50971	14404161	9.793894	0.203386	-0.056310	-0.008912	0.000238	-0.002518
50972	14404186	9.779999	0.240977	-0.042823	-0.002187	0.002031	-0.005659
50973	14404211	9.801404	0.232835	-0.023273	-0.003439	-0.000697	-0.002472
50974	14404236	9.785110	0.214465	-0.046190	-0.001469	0.002058	0.000434
50975	14404261	9.783374	0.214953	-0.074931	0.003253	0.000457	-0.002475
50976	14404286	9.815185	0.202812	-0.032493	-0.003400	-0.002125	-0.003438
50977	14404311	9.801065	0.196188	-0.048213	-0.002594	0.001200	0.001003
50978	14404336	9.794575	0.217361	-0.040066	-0.001192	-0.002918	-0.000496
50979	14404361	9.824944	0.213576	-0.016708	-0.000726	-0.001492	0.000209
50980	14404386	9.810193	0.216400	-0.022865	0.001197	0.000016	-0.007036
50981	14404411	9.797190	0.221183	-0.009838	-0.002158	-0.000674	-0.001767
50982	14404436	9.786563	0.235906	-0.015088	-0.005700	-0.002165	-0.003496
50983	14404461	9.778719	0.220755	-0.024214	-0.004925	-0.004606	-0.004023
50984	14404486	9.801346	0.236534	-0.019386	-0.004840	0.003421	0.000057
50985	14404511	9.822917	0.225019	-0.020579	-0.005285	-0.001249	-0.001183
50986	14404536	9.795425	0.223995	-0.038595	-0.005409	0.002755	-0.002444
50987	14404561	9.782630	0.254090	-0.032774	-0.002599	-0.000675	-0.000031
50988	14404586	9.809439	0.225495	0.002003	-0.004676	-0.004217	-0.002615
50989	14404611	9.792384	0.234693	-0.031359	-0.003946	0.001566	0.004148
50990	14404636	9.794967	0.248779	-0.014193	-0.002201	-0.001323	-0.001256
50991	14404661	9.802386	0.232969	-0.026640	-0.012673	-0.000416	-0.004755
50992	14404686	9.787683	0.228004	-0.026638	-0.004719	-0.003050	-0.002860
50993	14404711	9.806941	0.245183	-0.017116	-0.002934	-0.000694	-0.003365
50994	14404736	9.813267	0.236263	-0.020978	-0.003944	-0.000967	-0.000545
50995	14404761	9.809200	0.221136	-0.025320	-0.003484	-0.005679	-0.003265
50996	14404786	9.798644	0.224711	-0.020414	0.000729	-0.000952	-0.002733
50997	14404811	9.803197	0.236021	-0.009932	-0.000930	-0.001565	-0.005041
50998	14404836	9.797091	0.237592	-0.026157	0.000177	-0.001538	-0.001068
50999	14404861	9.786916	0.249751	-0.025137	-0.002733	0.001583	0.000176
51000	14404886	9.801052	0.216057	-0.008926	0.000781	-0.002562	-0.003004
51001	14404911	9.805364	0.225410	-0.030548	0.001909	-0.003633	-0.000124
51002	14404936	9.792680	0.221299	-0.051531	0.003700	-0.001477	0.000015
51003	14404961	9.816464	0.214605	-0.033485	0.002979	-0.004774	0.004673
51004	14404986	9.787643	0.230294	-0.024689	0.005780	-0.002335	0.001220
51005	14405011	9.805102	0.207344	-0.029645	0.001967	-0.009575	0.002792
51006	14405036	9.814966	0.211526	-0.014766	-0.000080	-0.003742	-0.000510
51007	14405061	9.782275	0.244016	-0.031865	0.003389	-0.003599	0.005330
51008	14405086	9.775202	0.238218	-0.031342	0.000431	-0.000548	0.008686
51009	14405111	9.818851	0.211333	-0.026797	0.001976	-0.004034	-0.002629
51010	14405136	9.793015	0.224325	-0.034374	0.000243	-0.007537	0.003515
51011	14405161	9.792355	0.206414	-0.045363	0.004980	-0.005186	0.005952
51012	14405186	9.793833	0.239103	-0.041562	0.002754	-0.005744	0.005890
51013	14405211	9.801854	0.209397	-0.047300	0.002202	-0.006659	0.005117
51014	14405236	9.783544	0.218974	-0.032825	0.001155	-0.001968	0.002256
51015	14405261	9.817799	0.222226	-0.031076	-0.000335	-0.003351	0.001609
51016	14405286	9.786269	0.225992	-0.024210	0.004610	-0.003511	0.006028
51017	14405311	9.797941	0.220948	-0.053480	-0.000973	-0.001818	-0.002159
51018	14405336	9.805085	0.213142	-0.038699	0.000052	-0.003536	0.002831
51019	14405361	9.804219	0.207479	-0.040602	0.003527	-0.004259	0.001408
51020	14405386	9.815407	0.224171	-0.034453	-0.001247	-0.005183	0.000577
51021	14405411	9.785419	0.254943	-0.021335	0.000755	-0.001787	-0.002998
51022	14405436	9.792368	0.232737	-0.022776	-0.002052	-0.000092	-0.002147
51023	14405461	9.796493	0.220879	-0.051530	-0.003800	0.002521	-0.003473
51024	14405486	9.800617	0.221501	-0.024302	0.001387	-0.001717	-0.003321
51025	14405511	9.819768	0.199693	-0.074697	-0.000797	-0.001495	-0.002159
51026	14405536	9.815025	0.221993	-0.045455	0.000212	-0.002700	-0.001016
51027	14405561	9.788021	0.194650	-0.014137	0.001907	-0.002092	-0.005315
51028	14405586	9.812063	0.223116	-0.031941	-0.001772	0.001471	0.000103
51029	14405611	9.791742	0.206165	-0.023208	-0.004813	0.004384	-0.002369
51030	14405636	9.808223	0.211813	-0.003190	-0.001305	0.000429	-0.004204
51031	14405661	9.783040	0.209640	-0.007363	-0.002034	0.001329	-0.004067
51032	14405686	9.797502	0.241373	-0.024732	-0.001040	0.000376	-0.001119
51033	14405711	9.800008	0.225559	-0.011767	0.001927	-0.002415	-0.004028
51034	14405736	9.798448	0.232047	-0.003637	0.001822	-0.000991	-0.001970
51035	14405761	9.796463	0.209521	-0.021851	0.001152	-0.002170	-0.001910
51036	14405786	9.793891	0.233000	-0.041452	0.000878	0.000872	0.001952
51037	14405811	9.782368	0.233619	-0.026074	0.000995	0.000873	-0.000934
51038	14405836	9.785658	0.243359	-0.040957	0.000577	0.000151	0.000283
51039	14405861	9.792530	0.222876	-0.030896	0.000109	0.002791	-0.000596
51040	14405886	9.791056	0.228675	-0.034793	-0.003105	-0.001606	-0.006385
51041	14405911	9.793403	0.236411	-0.043421	-0.002679	-0.002956	-0.006841
51042	14405936	9.796786	0.252483	-0.008898	0.003330	0.000139	0.000595
51043	14405961	9.785156	0.243242	-0.031877	0.004928	-0.002103	-0.002494
51044	14405986	9.777160	0.235004	-0.033292	0.000101	-0.003020	0.002643
51045	14406011	9.796703	0.234858	-0.035327	-0.003006	-0.004438	-0.000370
51046	14406036	9.785575	0.246031	-0.030921	0.001602	-0.001828	0.000916
51047	14406061	9.807904	0.225278	-0.055493	-0.001730	-0.003955	0.002579
51048	14406086	9.815884	0.225138	-0.035887	-0.004293	-0.003944	0.000787
51049	14406111	9.799889	0.245749	-0.035279	-0.001562	-0.000976	0.003682
51050	14406136	9.793001	0.220916	-0.025219	-0.006817	-0.003086	-0.000356
51051	14406161	9.793927	0.227655	-0.034319	-0.001408	-0.003883	0.002387
51052	14406186	9.799780	0.221255	-0.043930	0.001709	-0.005382	0.002813
51053	14406211	9.796743	0.236447	-0.044424	-0.000599	-0.003685	-0.002496
51054	14406236	9.779061	0.231142	-0.025977	-0.004393	0.005692	0.001931
51055	14406261	9.809846	0.233615	-0.003165	-0.003466	0.002338	-0.000274
51056	14406286	9.798108	0.225060	-0.012719	-0.004618	0.002125	-0.002639
51057	14406311	9.797112	0.226793	-0.008954	-0.000824	-0.003730	0.007646
51058	14406336	9.799366	0.205261	-0.020444	-0.004064	-0.003228	-0.001454
51059	14406361	9.797080	0.204430	-0.034798	-0.003074	-0.001781	0.003745
51060	14406386	9.803658	0.201402	-0.015097	-0.003962	0.001889	0.000815
51061	14406411	9.783116	0.211871	-0.026087	0.001162	-0.000618	-0.005367
51062	14406436	9.770221	0.218367	-0.032753	-0.000682	-0.002973	-0.001201
51063	14406461	9.770722	0.249037	-0.022236	-0.005923	-0.004937	0.001621
51064	14406486	9.811568	0.217678	-0.017075	-0.003181	0.001447	0.000170
51065	14406511	9.778631	0.225427	-0.022238	0.000998	-0.000939	0.000148
51066	14406536	9.787169	0.242119	-0.049073	-0.003445	0.003305	-0.005071
51067	14406561	9.814952	0.221804	-0.033901	0.001621	0.001326	-0.001839
51068	14406586	9.801171	0.227118	-0.050589	-0.000073	0.000143	-0.001960
51069	14406611	9.820024	0.240064	-0.043587	0.007947	-0.004567	-0.002459
51070	14406636	9.818369	0.226908	-0.055545	-0.000440	-0.004584	-0.001156
51071	14406661	9.786871	0.230790	-0.053449	-0.001253	-0.001313	-0.004916
51072	14406686	9.806707	0.227695	-0.021357	0.000606	0.002922	-0.004579
51073	14406711	9.809084	0.227174	-0.019546	0.004138	-0.003141	0.001346
51074	14406736	9.788784	0.251164	-0.018520	0.001571	-0.007527	-0.003995
51075	14406761	9.801216	0.240604	-0.006090	0.003019	-0.003999	0.002754
51076	14406786	9.787661	0.232337	-0.031858	0.001295	-0.000414	-0.000423
51077	14406811	9.765631	0.241053	-0.029864	0.006428	-0.002849	-0.001223
51078	14406836	9.791539	0.237505	-0.053891	0.000893	0.000153	-0.002603
51079	14406861	9.797605	0.237142	-0.032444	0.003834	-0.003602	0.002947
51080	14406886	9.809937	0.222276	-0.071723	0.003448	0.000532	0.002463
51081	14406911	9.775034	0.223485	-0.050968	0.006023	-0.002539	-0.004549
51082	14406936	9.803562	0.221258	-0.039623	-0.000794	0.000575	-0.002401
51083	14406961	9.808545	0.216505	-0.064558	-0.000544	-0.001225	-0.002290
51084	14406986	9.781498	0.239163	-0.051456	-0.000490	0.001493	0.001003
51085	14407011	9.782974	0.233452	-0.046183	0.000550	0.002865	-0.001878
51086	14407036	9.798453	0.233094	-0.007523	-0.004037	-0.004268	-0.003321
51087	14407061	9.791130	0.250086	-0.012182	-0.009097	0.004438	-0.000821
51088	14407086	9.800853	0.198683	-0.017974	-0.006031	0.003897	-0.007631
51089	14407111	9.793298	0.203570	-0.039075	-0.001055	-0.001174	-0.002028
51090	14407136	9.783408	0.219148	-0.010253	-0.004642	0.000571	-0.004378
51091	14407161	9.788465	0.191064	-0.001168	-0.003485	0.002860	-0.001289
51092	14407186	9.809338	0.196540	0.001120	-0.001934	0.000165	-0.001696
51093	14407211	9.805134	0.231715	-0.005145	-0.003845	-0.002329	-0.004211
51094	14407236	9.808170	0.222868	-0.018034	-0.006554	0.000931	-0.000723
51095	14407261	9.792768	0.208752	-0.039109	-0.009452	-0.002736	0.001323
51096	14407286	9.810800	0.221093	-0.054015	-0.006682	-0.001401	0.000222
51097	14407311	9.811346	0.207104	-0.035829	0.000033	-0.003426	-0.003965
51098	14407336	9.804760	0.209164	-0.053554	-0.002730	-0.002947	-0.001906
51099	14407361	9.802917	0.243408	-0.055964	-0.002937	-0.004968	-0.006081
51100	14407386	9.824090	0.215797	-0.036814	-0.003433	0.001049	-0.001884
51101	14407411	9.811632	0.225670	-0.044436	-0.000742	-0.001033	-0.001970
51102	14407436	9.781716	0.234164	0.001207	-0.003727	-0.001678	-0.001763
51103	14407461	9.788576	0.237669	-0.036190	-0.001864	-0.002161	-0.005174
51104	14407486	9.783487	0.234505	-0.052977	-0.003015	-0.004248	-0.002998
51105	14407511	9.798601	0.236856	-0.038126	-0.005180	-0.000472	-0.004582
51106	14407536	9.788261	0.225356	-0.039074	-0.005336	0.000493	-0.001554
51107	14407561	9.794472	0.269265	-0.052997	-0.000419	-0.001103	-0.002472
51108	14407586	9.795197	0.229714	-0.012197	-0.005627	0.001986	0.002296
51109	14407611	9.793852	0.227031	-0.020432	0.001198	-0.001647	-0.001590
51110	14407636	9.794866	0.226725	-0.031453	-0.001639	-0.005387	-0.003910
51111	14407661	9.809846	0.216673	-0.045388	-0.000073	0.000270	0.000539
51112	14407686	9.784335	0.228365	-0.025648	0.003043	-0.003101	0.000645
51113	14407711	9.804921	0.210345	-0.006052	0.002867	-0.001487	-0.001721
51114	14407736	9.804940	0.225566	-0.039657	-0.003150	-0.001594	-0.000869
51115	14407761	9.820702	0.217016	-0.030564	0.001004	0.000805	0.001377
51116	14407786	9.803808	0.226537	-0.012354	0.002415	-0.003503	-0.000386
51117	14407811	9.782104	0.218952	-0.029015	-0.003019	-0.006120	-0.002943
51118	14407836	9.782176	0.223593	-0.051026	0.001623	-0.003070	-0.003839
51119	14407861	9.827145	0.207915	-0.051728	0.000975	-0.002296	0.002830
51120	14407886	9.822820	0.176802	-0.060842	0.003454	-0.004195	-0.002575
51121	14407911	9.789894	0.203833	-0.026628	-0.001968	-0.002807	-0.002289
51122	14407936	9.783512	0.236062	-0.061581	0.003868	-0.001019	-0.001143
51123	14407961	9.817740	0.197973	-0.050722	-0.000300	-0.003102	-0.004929
51124	14407986	9.797792	0.209774	-0.006438	0.004511	0.005193	-0.002268
51125	14408011	9.787681	0.232479	-0.035684	-0.000401	0.001994	-0.006440
51126	14408036	9.813242	0.242104	-0.029128	0.002150	-0.001378	-0.002040
51127	14408061	9.795533	0.235300	-0.002648	0.000601	0.001174	-0.003113
51128	14408086	9.816093	0.197869	-0.014738	0.002462	0.000364	-0.008252
51129	14408111	9.809216	0.197963	-0.061155	0.000323	0.001688	-0.004524
51130	14408136	9.788736	0.224381	-0.034794	-0.001603	-0.004549	-0.005062
51131	14408161	9.798652	0.234997	-0.043413	-0.004236	0.000264	-0.000474
51132	14408186	9.826051	0.212014	-0.035940	-0.000210	-0.003815	-0.002685
51133	14408211	9.798204	0.231119	-0.039602	-0.000972	-0.001745	0.000404
51134	14408236	9.806603	0.232291	-0.013761	-0.003509	-0.004375	0.001232
51135	14408261	9.796932	0.252873	-0.030977	-0.000931	-0.001502	-0.005619
51136	14408286	9.803529	0.227501	-0.047759	0.001192	-0.000866	0.003800
51137	14408311	9.785136	0.235895	-0.015097	0.001450	-0.001656	-0.004539
51138	14408336	9.785252	0.230786	-0.024676	-0.003459	-0.002249	-0.002797
51139	14408361	9.815465	0.214547	-0.025761	-0.000964	-0.000010	-0.002411
51140	14408386	9.799724	0.216733	-0.024758	-0.000359	-0.002845	-0.001396
51141	14408411	9.809182	0.227413	-0.033442	0.000019	-0.005034	-0.002818
51142	14408436	9.796955	0.245056	-0.021370	-0.001229	0.000635	0.001322
51143	14408461	9.816135	0.224059	0.001509	0.002852	-0.000639	0.002959
51144	14408486	9.800567	0.226704	-0.026696	-0.000791	-0.003161	0.001812
51145	14408511	9.788280	0.218995	-0.028039	-0.001034	-0.002012	-0.001515
51146	14408536	9.794357	0.226159	-0.023778	0.004254	-0.001413	-0.005642
51147	14408561	9.787245	0.228999	-0.034293	0.002536	-0.005177	0.002494
51148	14408586	9.811346	0.210067	-0.042127	0.002061	-0.006936	-0.003737
51149	14408611	9.815304	0.199683	-0.044448	0.002502	0.001471	-0.004208
51150	14408636	9.777570	0.239822	-0.033268	-0.000671	-0.000840	0.000861
51151	14408661	9.795934	0.225992	-0.048226	-0.000092	-0.000958	0.001180
51152	14408686	9.798187	0.224259	-0.022324	-0.002344	-0.000878	-0.001064
51153	14408711	9.815769	0.197734	-0.040128	-0.001556	0.000367	-0.002986
51154	14408736	9.787303	0.222803	-0.031876	-0.003614	-0.001277	-0.000028
51155	14408761	9.780396	0.214035	-0.054819	0.006317	0.001101	0.003354
51156	14408786	9.822517	0.191617	-0.041561	-0.000753	0.003679	-0.000982
51157	14408811	9.829036	0.206544	-0.046440	0.001791	-0.000289	-0.004472
51158	14408836	9.826118	0.225405	-0.075708	-0.000978	-0.003818	-0.001149
51159	14408861	9.788031	0.220542	-0.068247	0.000115	0.002469	-0.000212
51160	14408886	9.807876	0.218498	-0.038668	-0.002323	0.000092	-0.004327
51161	14408911	9.795368	0.228737	-0.039958	0.003052	0.004973	-0.000913
51162	14408936	9.794564	0.213449	-0.033755	-0.001371	0.003092	0.002743
51163	14408961	9.807751	0.226480	-0.032937	-0.003143	-0.000310	-0.004131
51164	14408986	9.815894	0.234470	-0.057965	-0.000922	-0.005570	-0.001091
51165	14409011	9.800275	0.247505	-0.022797	-0.003678	0.001182	0.003566
51166	14409036	9.784354	0.241245	-0.054376	-0.004818	-0.000085	-0.006367
51167	14409061	9.771219	0.255021	-0.036588	-0.001095	-0.002086	-0.004014
51168	14409086	9.782730	0.253414	-0.046206	0.002402	0.000758	-0.003374
51169	14409111	9.796087	0.248209	-0.040047	-0.007319	0.000592	-0.001806
51170	14409136	9.785583	0.281183	-0.025607	-0.005153	0.000551	-0.007205
51171	14409161	9.805205	0.229420	-0.011831	-0.002170	-0.000747	-0.005676
51172	14409186	9.767275	0.231353	-0.045588	-0.003657	0.004207	-0.003786
51173	14409211	9.774455	0.267564	-0.046652	-0.000091	0.000514	-0.004329
51174	14409236	9.807734	0.238177	-0.054450	-0.003339	0.002079	-0.003479
51175	14409261	9.833437	0.233568	-0.045098	-0.002618	-0.002295	-0.000300
51176	14409286	9.807858	0.221382	-0.041118	-0.001433	-0.005969	-0.006735
51177	14409311	9.817153	0.189741	-0.016649	-0.002575	0.000611	-0.000289
51178	14409336	9.795753	0.227077	-0.020832	0.000554	0.002672	-0.002010
51179	14409361	9.808211	0.220583	-0.020455	0.000596	0.001052	-0.003816
51180	14409386	9.789122	0.225574	-0.022782	0.002399	-0.002918	-0.000510
51181	14409411	9.810236	0.216511	-0.031028	-0.002714	-0.001660	-0.004721
51182	14409436	9.799379	0.233945	-0.005545	-0.004955	0.001027	0.000884
51183	14409461	9.784937	0.212562	-0.013630	-0.006473	0.000149	-0.000463
51184	14409486	9.796320	0.216030	-0.012282	-0.001273	-0.002603	-0.002865
51185	14409511	9.788714	0.222839	-0.028954	-0.005093	0.000954	-0.002201
51186	14409536	9.786513	0.211572	-0.035652	-0.001781	0.001325	-0.006056
51187	14409561	9.776621	0.243259	-0.039935	-0.002098	-0.000548	-0.003178
51188	14409586	9.780145	0.220751	-0.026036	0.002223	0.002699	-0.000218
51189	14409611	9.809518	0.239315	-0.037780	0.001143	-0.005911	0.000383
51190	14409636	9.797317	0.229364	-0.046682	-0.000782	0.006583	-0.003144
51191	14409661	9.796249	0.230051	-0.030869	-0.004259	0.005037	-0.000770
51192	14409686	9.788704	0.214441	-0.011231	0.000770	-0.000043	-0.000544
51193	14409711	9.799376	0.224811	-0.063148	-0.001776	-0.004275	0.004372
51194	14409736	9.790947	0.240554	-0.041465	-0.005895	-0.003967	0.001433
51195	14409761	9.795814	0.186796	-0.025669	-0.006612	0.000215	-0.002451
51196	14409786	9.811266	0.217112	-0.044435	-0.001909	-0.000276	0.001888
51197	14409811	9.803557	0.227553	-0.050176	-0.007689	-0.001933	0.000745
51198	14409836	9.785078	0.219320	-0.049566	-0.005890	-0.000097	-0.001626
51199	14409861	9.793469	0.223346	-0.027127	-0.006270	-0.000687	-0.004438
51200	14409886	9.798555	0.202241	-0.038604	-0.002536	0.001000	-0.003028
51201	14409911	9.801634	0.217315	-0.027150	-0.006121	-0.003533	-0.008364
51202	14409936	9.798024	0.211862	-0.048736	-0.003980	-0.001933	-0.001816
51203	14409961	9.820813	0.210947	-0.034456	-0.001094	-0.004075	-0.000238
51204	14409986	9.816858	0.227246	-0.044001	-0.005974	0.000089	-0.005458
51205	14410011	9.797504	0.217168	-0.052033	-0.007303	-0.000317	-0.006232
51206	14410036	9.799751	0.221760	-0.039591	0.001371	-0.001265	-0.006385
51207	14410061	9.802055	0.219059	-0.021411	-0.002426	-0.000355	-0.000979
51208	14410086	9.784312	0.238216	-0.040076	-0.001846	-0.007276	-0.008266
51209	14410111	9.789300	0.233367	-0.068302	-0.002052	0.000171	-0.000852
51210	14410136	9.823279	0.204870	-0.036321	-0.004989	0.001666	-0.003730
51211	14410161	9.808084	0.205339	-0.046279	-0.004284	0.003481	-0.006089
51212	14410186	9.776056	0.203609	-0.023161	-0.001170	0.000507	-0.001426
51213	14410211	9.790911	0.236101	-0.024710	0.000778	-0.002827	-0.006391
51214	14410236	9.807997	0.203583	-0.026644	-0.003238	0.003058	-0.002564
51215	14410261	9.820340	0.201189	-0.016145	-0.007915	0.003298	-0.001912
51216	14410286	9.837864	0.214907	-0.026879	0.002202	-0.003251	-0.003968
51217	14410311	9.795552	0.213469	-0.036260	0.000736	-0.003269	-0.000048
51218	14410336	9.795509	0.208565	-0.020414	-0.001264	-0.002664	-0.002027
51219	14410361	9.799632	0.223880	-0.023330	0.000377	-0.002447	-0.006266
51220	14410386	9.813784	0.237879	-0.032000	0.002350	-0.001566	-0.001323
51221	14410411	9.791927	0.235248	-0.033340	-0.005932	-0.003195	-0.003423
51222	14410436	9.797732	0.217968	-0.013687	0.000797	-0.001009	-0.002407
51223	14410461	9.803110	0.225198	-0.051562	0.003032	0.001614	0.000487
51224	14410486	9.791641	0.231370	-0.058203	0.003071	0.002061	-0.002334
51225	14410511	9.798148	0.242781	-0.053496	-0.003724	-0.000127	-0.003861
51226	14410536	9.793882	0.242757	-0.055884	-0.006060	-0.003010	-0.003357
51227	14410561	9.805468	0.219884	-0.037261	0.003093	-0.001231	-0.004980
51228	14410586	9.801151	0.221563	-0.034781	-0.002177	0.000115	0.002669
51229	14410611	9.789287	0.235345	-0.070227	-0.003971	-0.000389	-0.003478
51230	14410636	9.813610	0.228870	-0.062127	-0.006206	0.003707	-0.004096
51231	14410661	9.806128	0.207666	-0.042955	-0.005120	0.001203	-0.007893
51232	14410686	9.793035	0.226424	-0.040941	-0.001852	0.001715	-0.004758
51233	14410711	9.758033	0.243050	-0.038351	-0.003700	0.005235	-0.007808
51234	14410736	9.804019	0.221755	-0.037620	-0.001848	0.005659	-0.004929
51235	14410761	9.809032	0.199437	-0.033333	-0.003001	0.003502	-0.005069
51236	14410786	9.794755	0.204213	-0.043383	-0.004530	0.000758	-0.008793
51237	14410811	9.807293	0.218178	-0.018533	-0.004952	-0.001632	-0.003679
51238	14410836	9.803335	0.237325	-0.034748	-0.002876	0.003900	-0.003266
51239	14410861	9.795348	0.220854	-0.019012	0.000653	-0.002569	-0.001511
51240	14410886	9.789151	0.231517	-0.041886	-0.000222	0.003311	0.000444
51241	14410911	9.778076	0.225707	-0.010679	-0.007224	0.003828	0.000401
51242	14410936	9.786275	0.227545	-0.027983	-0.002922	0.000983	-0.005528
51243	14410961	9.763195	0.243388	-0.025471	0.000410	0.002846	-0.007260
51244	14410986	9.803377	0.227126	-0.019519	-0.002711	-0.003658	-0.002028
51245	14411011	9.804980	0.218787	-0.031077	-0.002222	-0.007074	-0.002044
51246	14411036	9.813505	0.229519	-0.046290	-0.002573	0.004752	0.000259
51247	14411061	9.810279	0.209225	-0.022398	-0.004368	0.000192	-0.001483
51248	14411086	9.818703	0.219265	-0.017603	-0.006783	0.001700	-0.000839
51249	14411111	9.807247	0.227326	-0.030974	-0.004663	0.001679	-0.000711
51250	14411136	9.769611	0.238092	-0.050493	-0.008813	-0.002991	-0.002453
51251	14411161	9.794908	0.230756	-0.045316	-0.003697	0.001431	-0.002056
51252	14411186	9.784094	0.237593	-0.003585	-0.003104	-0.001407	-0.004254
51253	14411211	9.797738	0.225289	-0.027647	-0.003944	-0.003098	-0.003430
51254	14411236	9.795165	0.221577	-0.068819	-0.000414	-0.001223	-0.000606
51255	14411261	9.772489	0.231392	-0.040897	0.002368	-0.002214	-0.003953
51256	14411286	9.784606	0.224252	-0.061013	-0.004484	0.003739	-0.005636
51257	14411311	9.802875	0.239836	-0.042896	-0.001922	0.003913	-0.004555
51258	14411336	9.785809	0.246617	-0.069662	-0.002636	0.006689	0.000148
51259	14411361	9.802500	0.239134	-0.059257	-0.002067	0.000292	-0.004376
51260	14411386	9.798586	0.215029	-0.070240	-0.006545	0.000285	-0.000651
51261	14411411	9.790460	0.238646	-0.036171	-0.002362	0.001511	-0.005400
51262	14411436	9.786034	0.254416	-0.044702	0.000831	0.005695	-0.008529
51263	14411461	9.792866	0.237265	-0.035733	0.002149	0.000298	-0.006954
51264	14411486	9.806101	0.203107	-0.028527	-0.000376	0.005814	-0.003335
51265	14411511	9.793571	0.243961	-0.008856	-0.000131	0.002010	-0.003861
51266	14411536	9.802667	0.247145	-0.024706	-0.002873	0.003576	-0.005126
51267	14411561	9.802578	0.253268	-0.021395	0.001067	0.000408	-0.002979
51268	14411586	9.781687	0.246743	-0.017438	-0.003135	0.000022	-0.001366
51269	14411611	9.793118	0.232797	0.007919	-0.003743	0.000778	-0.004824
51270	14411636	9.796927	0.237203	0.000315	-0.000748	0.005552	-0.001729
51271	14411661	9.795648	0.223311	0.005489	-0.003272	0.000149	-0.000332
51272	14411686	9.793602	0.245505	-0.018928	-0.001331	0.001538	-0.001420
51273	14411711	9.788412	0.236244	-0.008368	-0.001504	0.001219	0.000949
51274	14411736	9.788808	0.236536	0.004065	-0.002854	-0.001271	-0.004190
51275	14411761	9.791717	0.241103	-0.011712	-0.000164	0.003168	-0.003986
51276	14411786	9.813082	0.211033	-0.016661	-0.002171	-0.000089	0.000626
51277	14411811	9.797585	0.224908	-0.004613	0.002001	-0.002600	-0.000559
51278	14411836	9.795303	0.227048	-0.023768	0.003788	-0.002246	0.001365
51279	14411861	9.818284	0.207201	-0.005657	-0.001237	-0.003439	-0.001837
51280	14411886	9.802967	0.228775	-0.036763	-0.001289	0.000249	-0.001237
51281	14411911	9.811471	0.228717	-0.023877	0.003400	-0.002323	-0.002293
51282	14411936	9.791529	0.231030	-0.037654	0.000991	-0.003199	-0.000812
51283	14411961	9.783380	0.231297	-0.029896	0.006063	0.000696	-0.002983
51284	14411986	9.791197	0.242418	-0.009342	0.006975	0.000598	0.003166
51285	14412011	9.786703	0.237175	-0.041903	0.006412	-0.000127	0.001827
51286	14412036	9.791638	0.231328	-0.058169	0.000288	0.003384	0.001857
51287	14412061	9.817259	0.194446	-0.042039	0.005352	0.000618	-0.003818
51288	14412086	9.821683	0.218154	-0.038286	0.007844	-0.000879	-0.000055
51289	14412111	9.798944	0.216683	-0.053972	0.006995	-0.000578	-0.001334
51290	14412136	9.786047	0.251875	-0.041937	0.010130	-0.002128	0.002502
51291	14412161	9.779920	0.247540	-0.042889	0.004081	-0.003469	0.001362
51292	14412186	9.799555	0.242811	-0.051549	0.004886	-0.000744	-0.004143
51293	14412211	9.814307	0.213775	-0.066038	0.007722	-0.001602	-0.004287
51294	14412236	9.795986	0.227656	-0.059171	0.001372	0.003138	-0.002511
51295	14412261	9.802316	0.256730	-0.063101	-0.000054	-0.000642	-0.003426
51296	14412286	9.826401	0.232303	-0.057875	0.003126	0.004263	-0.004373
51297	14412311	9.797210	0.241802	-0.053997	0.002611	-0.003886	-0.001143
51298	14412336	9.803436	0.229293	-0.035362	0.001572	-0.003329	-0.002672
51299	14412361	9.797752	0.230212	-0.042490	0.003499	-0.003481	0.000204
51300	14412386	9.778282	0.218821	-0.029835	-0.003386	0.004426	0.004886
51301	14412411	9.786506	0.240567	-0.016065	-0.000134	-0.001535	0.002342
51302	14412436	9.811674	0.205738	-0.008980	0.003767	-0.001994	-0.004151
51303	14412461	9.786547	0.231872	-0.004016	0.003521	0.000143	0.001059
51304	14412486	9.805888	0.240970	0.007817	0.004433	0.001448	-0.000998
51305	14412511	9.794389	0.243604	0.013704	0.007038	0.004336	-0.001943
51306	14412536	9.767276	0.259981	-0.025995	0.003864	0.001505	0.000103
51307	14412561	9.814835	0.224914	-0.022394	0.001150	0.002424	0.001138
51308	14412586	9.804970	0.226105	-0.044912	0.007375	-0.002511	-0.000569
51309	14412611	9.808392	0.213154	-0.032915	0.002591	-0.000979	-0.000808
51310	14412636	9.821987	0.225026	-0.022963	0.004800	-0.001976	-0.001012
51311	14412661	9.794724	0.229742	-0.012689	0.002158	0.000569	0.000423
51312	14412686	9.811052	0.238183	-0.052620	0.003204	-0.000454	-0.004017
51313	14412711	9.782804	0.231631	-0.016448	0.001492	0.003068	-0.007127
51314	14412736	9.791345	0.239839	-0.027555	0.000323	0.000021	0.000879
51315	14412761	9.809725	0.218358	-0.029111	-0.000195	-0.000249	-0.002785
51316	14412786	9.813277	0.212127	-0.052085	-0.001308	0.000827	-0.002903
51317	14412811	9.790501	0.233831	-0.033264	-0.007394	0.002784	-0.004928
51318	14412836	9.795305	0.222737	-0.015610	-0.000471	0.000255	-0.004387
51319	14412861	9.808532	0.201826	-0.033389	-0.003426	0.000459	-0.005530
51320	14412886	9.793375	0.209655	-0.062082	0.001249	-0.001328	-0.004204
51321	14412911	9.773916	0.237226	-0.052893	0.002781	-0.002843	-0.000496
51322	14412936	9.795082	0.214505	-0.041038	0.000623	-0.003394	0.000988
51323	14412961	9.805681	0.214936	-0.064003	-0.003880	0.003573	0.003852
51324	14412986	9.817936	0.223128	-0.059358	0.002459	-0.000586	0.001757
51325	14413011	9.806822	0.243669	-0.073195	-0.001608	-0.002019	-0.003110
51326	14413036	9.813234	0.209946	-0.041019	0.002408	0.003231	0.004350
51327	14413061	9.797489	0.218555	-0.053987	0.000617	-0.003532	-0.001070
51328	14413086	9.790874	0.241807	-0.031428	0.003700	-0.001800	-0.000879
51329	14413111	9.772539	0.228533	-0.043316	0.002407	-0.005105	0.000587
51330	14413136	9.777146	0.237493	-0.037519	0.001025	0.002296	0.000565
51331	14413161	9.776926	0.229823	-0.063421	0.005180	0.002496	-0.000027
51332	14413186	9.790662	0.221505	-0.031893	0.000788	-0.003077	-0.004730
51333	14413211	9.785054	0.260406	0.024675	0.000243	-0.001736	-0.002663
51334	14413236	9.790235	0.246319	-0.014157	0.006165	-0.002792	-0.002810
51335	14413261	9.802006	0.235872	0.028500	0.007848	0.001058	-0.001641
51336	14413286	9.789734	0.241835	-0.000799	0.008681	-0.007591	-0.001496
51337	14413311	9.789279	0.244943	-0.012189	0.003113	0.002517	-0.005279
51338	14413336	9.784220	0.220321	0.009371	0.005108	-0.001775	-0.002867
51339	14413361	9.789829	0.235258	-0.002624	0.002766	-0.000459	-0.002600
51340	14413386	9.806778	0.225384	-0.029030	0.007322	0.003703	0.001900
51341	14413411	9.806549	0.236544	-0.013770	0.003131	-0.001676	-0.000106
51342	14413436	9.822957	0.219212	-0.013805	0.002755	0.000057	-0.001638
51343	14413461	9.798760	0.217160	-0.026163	0.001983	-0.001748	0.003809
51344	14413486	9.822980	0.220315	-0.020973	0.007464	0.002660	-0.004329
51345	14413511	9.798824	0.217354	-0.034819	-0.000048	-0.002579	-0.000940
51346	14413536	9.792636	0.207495	-0.015562	0.003526	0.001816	-0.002399
51347	14413561	9.810047	0.215004	0.003489	0.004923	-0.000031	-0.002095
51348	14413586	9.807827	0.221266	-0.038139	0.002559	0.004523	0.002110
51349	14413611	9.809744	0.224759	-0.046352	0.004098	-0.000039	-0.000104
51350	14413636	9.782670	0.220214	-0.047215	0.002190	-0.002730	-0.002868
51351	14413661	9.796934	0.227643	-0.057763	0.002407	0.000766	-0.002976
51352	14413686	9.789907	0.227904	-0.078771	0.004588	0.004612	-0.003923
51353	14413711	9.776550	0.228591	-0.075932	-0.000942	-0.002524	0.001177
51354	14413736	9.807913	0.236689	-0.081314	0.005643	-0.000408	-0.002925
51355	14413761	9.819656	0.232456	-0.046348	-0.004685	0.002323	0.000124
51356	14413786	9.792582	0.224531	-0.041962	-0.000553	-0.001235	-0.004129
51357	14413811	9.774029	0.228372	-0.054734	0.002779	0.004502	-0.011611
51358	14413836	9.806880	0.217853	-0.029541	-0.000551	0.000905	-0.004314
51359	14413861	9.798648	0.243419	-0.060634	-0.002293	0.003193	-0.006542
51360	14413886	9.787299	0.231747	-0.049570	0.001882	0.000679	-0.007468
51361	14413911	9.782566	0.234065	-0.060090	-0.002629	0.002496	0.002563
51362	14413936	9.789274	0.223088	-0.044299	0.003044	0.002714	-0.003418
51363	14413961	9.778786	0.239262	0.003579	-0.000492	-0.004780	-0.000624
51364	14413986	9.809594	0.231206	-0.033806	-0.001755	0.004894	-0.003134
51365	14414011	9.792993	0.249603	-0.004504	-0.005622	0.005525	-0.004983
51366	14414036	9.826179	0.232730	-0.021973	-0.006378	0.000727	-0.006936
51367	14414061	9.800342	0.232050	-0.000797	-0.005336	-0.003706	-0.004266
51368	14414086	9.798662	0.242626	0.018963	-0.006406	0.006293	-0.002411
51369	14414111	9.793626	0.234810	0.000245	-0.009874	0.000286	-0.003786
51370	14414136	9.810381	0.221992	0.012122	-0.003977	0.000070	-0.002448
51371	14414161	9.807013	0.232129	-0.002713	0.000551	-0.001469	-0.003819
51372	14414186	9.821348	0.231013	-0.009408	-0.005728	0.004880	-0.002296
51373	14414211	9.787971	0.261517	0.014641	-0.001828	0.001270	-0.000075
51374	14414236	9.797615	0.206839	0.029466	0.000873	0.000869	0.000301
51375	14414261	9.796906	0.240525	-0.002674	-0.003678	-0.001213	-0.001051
51376	14414286	9.815756	0.223407	-0.011916	0.000727	-0.005352	-0.005955
51377	14414311	9.811682	0.212605	-0.025752	0.002073	-0.002724	0.000660
51378	14414336	9.823172	0.237174	-0.007104	0.000231	-0.001413	-0.003690
51379	14414361	9.794003	0.249717	-0.015115	0.003313	-0.001346	0.000091
51380	14414386	9.788502	0.243269	-0.034762	0.000347	-0.000751	0.000547
51381	14414411	9.798203	0.225279	-0.028080	-0.001998	-0.001767	-0.002085
51382	14414436	9.798048	0.203103	-0.033918	0.001691	-0.005455	-0.004168
51383	14414461	9.797918	0.229154	-0.066920	0.001571	-0.003193	0.000793
51384	14414486	9.791022	0.237357	-0.046747	0.003818	-0.001080	-0.000487
51385	14414511	9.793204	0.221402	-0.057798	0.000665	-0.002882	-0.000039
51386	14414536	9.799847	0.227874	-0.067430	0.001206	-0.004303	-0.005826
51387	14414561	9.799687	0.237197	-0.062188	0.001256	-0.003715	-0.001976
51388	14414586	9.832788	0.206856	-0.036878	0.002180	-0.002149	-0.000426
51389	14414611	9.818935	0.217892	-0.055940	0.001879	0.003409	0.000432
51390	14414636	9.797938	0.220908	-0.055900	0.000817	-0.001325	0.002149
51391	14414661	9.753818	0.248947	-0.061008	0.004426	-0.008303	0.001334
51392	14414686	9.795062	0.218420	-0.044792	0.003462	-0.000121	-0.002147
51393	14414711	9.795313	0.233004	-0.038137	0.003417	0.001232	-0.001635
51394	14414736	9.799759	0.214878	-0.027653	0.005631	-0.004353	-0.003782
51395	14414761	9.805201	0.236789	-0.028079	0.000997	0.000796	-0.003552
51396	14414786	9.822428	0.228353	-0.023395	0.000143	-0.000499	-0.000542
51397	14414811	9.815876	0.222708	-0.029600	-0.001912	-0.002475	-0.002475
51398	14414836	9.766443	0.240258	-0.004418	-0.002809	0.001115	-0.007704
51399	14414861	9.813617	0.199520	-0.004114	0.000660	0.003383	-0.001937
51400	14414886	9.806067	0.206395	-0.028156	0.000624	-0.001656	-0.000808
51401	14414911	9.803539	0.199431	-0.069291	-0.003114	0.001118	-0.001170
51402	14414936	9.806247	0.178867	-0.080281	-0.007050	0.003554	-0.009421
51403	14414961	9.800370	0.201600	-0.022731	-0.006138	0.005315	-0.008704
51404	14414986	9.767316	0.253575	0.058905	0.003378	0.006323	-0.008720
51405	14415011	9.795102	0.280925	0.054409	-0.001246	0.005160	-0.003262
51406	14415036	9.818138	0.246258	0.017822	-0.003532	0.001878	-0.006868
51407	14415061	9.820885	0.173702	-0.048799	-0.002037	-0.000541	-0.001054
51408	14415086	9.794696	0.171525	-0.045765	-0.001174	0.001912	-0.009760
51409	14415111	9.789083	0.237286	-0.040949	0.004324	0.000796	-0.004388
51410	14415136	9.809026	0.261601	-0.003662	0.004061	0.003177	-0.004448
51411	14415161	9.801221	0.225453	0.025122	0.003079	0.000003	-0.000677
51412	14415186	9.792831	0.235705	-0.027513	0.006437	0.002834	-0.004579
51413	14415211	9.796574	0.207429	-0.036216	0.005445	0.001325	-0.007285
51414	14415236	9.797114	0.203098	-0.036680	0.001933	0.001536	-0.001048
51415	14415261	9.797966	0.238875	-0.016151	0.009644	-0.003110	-0.000389
51416	14415286	9.801747	0.220583	-0.052511	0.004663	-0.000113	-0.007731
51417	14415311	9.790388	0.245795	-0.037620	0.011286	0.001109	-0.005309
51418	14415336	9.774632	0.252242	-0.043345	0.011115	-0.003153	0.000380
51419	14415361	9.810418	0.246069	-0.044419	0.006799	0.001808	-0.000869
51420	14415386	9.823862	0.235774	-0.038775	0.009802	-0.002535	-0.003977
51421	14415411	9.774210	0.243678	-0.036995	0.008290	0.004926	-0.007455
51422	14415436	9.787939	0.247031	-0.029949	0.013407	-0.000787	-0.001730
51423	14415461	9.830181	0.226381	-0.041622	0.010815	0.002204	-0.002351
51424	14415486	9.799721	0.250821	-0.016053	0.010115	0.003865	-0.006057
51425	14415511	9.787482	0.285100	-0.032322	0.013205	0.001201	-0.008063
51426	14415536	9.788267	0.260360	-0.032431	0.013568	-0.006214	-0.003234
51427	14415561	9.807955	0.230659	0.002505	0.013424	-0.001565	-0.003216
51428	14415586	9.780269	0.241410	-0.008884	0.012857	-0.005902	-0.002399
51429	14415611	9.778518	0.233422	-0.018894	0.013259	-0.002079	0.000766
51430	14415636	9.779864	0.244993	-0.028939	0.011760	-0.001194	0.000712
51431	14415661	9.813239	0.237140	-0.018075	0.008969	0.000113	0.002776
51432	14415686	9.805166	0.241021	-0.029578	0.013323	-0.002210	-0.000200
51433	14415711	9.816384	0.219847	-0.029637	0.011072	-0.001992	-0.001289
51434	14415736	9.794788	0.253644	0.004936	0.008687	-0.005588	-0.001293
51435	14415761	9.802522	0.238846	0.014992	0.011927	-0.004292	0.003512
51436	14415786	9.782873	0.254383	0.004062	0.005494	-0.005108	0.006732
51437	14415811	9.817203	0.211660	0.006805	0.009499	-0.002530	0.001796
51438	14415836	9.787895	0.201104	-0.006930	0.012381	-0.000407	0.001541
51439	14415861	9.777927	0.212327	-0.034228	0.012973	-0.001310	-0.001156
51440	14415886	9.818679	0.192947	-0.038717	0.009313	-0.000922	-0.000313
51441	14415911	9.807497	0.208404	-0.033426	0.011988	-0.002423	0.000121
51442	14415936	9.822576	0.209665	-0.008145	0.011902	-0.006177	-0.003168
51443	14415961	9.811483	0.229685	-0.027214	0.011986	-0.004755	-0.001684
51444	14415986	9.806617	0.204663	-0.039135	0.007430	0.000216	0.002714
51445	14416011	9.795445	0.186097	-0.042932	0.007920	-0.001264	0.000007
51446	14416036	9.801253	0.225374	-0.058322	0.009879	-0.003116	-0.004813
51447	14416061	9.817557	0.180075	-0.064090	0.003144	0.001617	-0.002593
51448	14416086	9.791236	0.195561	-0.074018	0.006761	0.000580	-0.003374
51449	14416111	9.795687	0.208088	-0.050052	0.009172	0.005466	-0.004764
51450	14416136	9.784730	0.215844	-0.065369	0.005776	0.001074	-0.007024
51451	14416161	9.795855	0.207026	-0.073942	0.004031	0.008023	-0.005187
51452	14416186	9.785773	0.208207	-0.063019	0.007500	-0.001034	-0.008647
51453	14416211	9.789059	0.214490	-0.069192	0.002842	0.004829	-0.008151
51454	14416236	9.812922	0.208605	-0.064060	0.004590	0.001685	-0.012214
51455	14416261	9.800188	0.226012	-0.041957	0.005785	0.003473	-0.001629
51456	14416286	9.794068	0.209602	-0.021282	0.003681	0.004323	-0.011554
51457	14416311	9.784205	0.235945	-0.019308	0.001967	0.004369	-0.006354
51458	14416336	9.793872	0.227658	-0.025634	0.004598	0.001629	-0.009905
51459	14416361	9.772261	0.239186	-0.020227	0.007278	0.004460	-0.006557
51460	14416386	9.815081	0.217832	-0.046833	0.000171	-0.000063	-0.009264
51461	14416411	9.796448	0.253386	-0.032350	0.009063	0.002551	-0.007345
51462	14416436	9.798672	0.262713	-0.026586	0.007582	0.003771	0.002930
51463	14416461	9.787159	0.269302	-0.026056	0.002892	0.003612	-0.003284
51464	14416486	9.806003	0.247228	-0.024728	0.007840	0.004661	-0.008039
51465	14416511	9.811666	0.255902	-0.031961	-0.000019	0.002393	-0.005661
51466	14416536	9.796386	0.262516	-0.039939	0.003557	0.006989	-0.003135
51467	14416561	9.816119	0.236846	-0.021423	0.002912	0.004898	-0.005402
51468	14416586	9.804564	0.245642	-0.019015	0.005753	-0.001828	-0.002678
51469	14416611	9.780348	0.263882	0.009940	0.005628	0.004449	-0.000013
51470	14416636	9.803640	0.245658	-0.024334	0.000396	-0.000364	0.000359
51471	14416661	9.784124	0.236195	-0.006925	0.001699	-0.001124	-0.001444
51472	14416686	9.769376	0.250188	-0.038024	0.000435	-0.001529	0.001574
51473	14416711	9.779708	0.247566	-0.008810	0.001770	-0.001183	-0.001375
51474	14416736	9.803592	0.219402	-0.039596	0.003396	-0.000189	-0.003302
51475	14416761	9.815703	0.201492	-0.037792	0.004072	-0.003406	-0.002369
51476	14416786	9.784482	0.257974	-0.032764	-0.000466	0.002457	-0.003149
51477	14416811	9.770886	0.237233	-0.023672	0.001310	-0.003262	-0.002484
51478	14416836	9.796277	0.225239	-0.024708	-0.004810	0.001988	-0.004807
51479	14416861	9.794734	0.235166	-0.025188	0.001502	-0.001128	-0.002983
51480	14416886	9.820308	0.212863	-0.035837	0.006874	0.001499	0.001566
51481	14416911	9.795221	0.209550	-0.052993	0.003140	-0.000589	-0.004785
51482	14416936	9.779946	0.236938	-0.026586	-0.002030	-0.000872	-0.002073
51483	14416961	9.791907	0.236713	-0.034236	-0.001732	0.001720	-0.006041
51484	14416986	9.786613	0.239003	-0.029959	0.001737	-0.001010	-0.008051
51485	14417011	9.779520	0.234050	-0.028425	0.003764	0.002800	0.001906
51486	14417036	9.810779	0.218151	-0.044409	-0.003609	0.002459	-0.005262
51487	14417061	9.809281	0.224866	-0.047763	-0.002982	0.000590	-0.007840
51488	14417086	9.794317	0.233343	-0.030964	-0.004521	-0.001037	-0.002769
51489	14417111	9.820572	0.221172	-0.016126	-0.004819	0.004378	-0.005704
51490	14417136	9.783080	0.241357	-0.001643	-0.003199	-0.000243	-0.004382
51491	14417161	9.791718	0.213936	-0.033350	-0.000323	-0.002259	-0.002797
51492	14417186	9.821378	0.199439	-0.025766	-0.002892	0.000219	-0.002009
51493	14417211	9.815897	0.214899	-0.019492	0.001748	0.003870	0.001912
51494	14417236	9.795460	0.209935	-0.015145	0.000420	-0.001666	-0.005428
51495	14417261	9.797135	0.230860	-0.018526	-0.007591	-0.003360	-0.004832
51496	14417286	9.801945	0.229105	-0.023717	-0.000104	0.005105	-0.005706
51497	14417311	9.771107	0.251264	-0.011126	-0.004193	0.000970	-0.002700
51498	14417336	9.789417	0.276315	-0.018907	-0.001295	0.002380	-0.003149
51499	14417361	9.798874	0.239719	-0.011755	-0.000952	0.002129	0.001404
51500	14417386	9.793502	0.250575	-0.010833	-0.000833	-0.002071	-0.000603
51501	14417411	9.805286	0.254864	-0.001271	-0.000891	-0.000072	-0.000991
51502	14417436	9.825556	0.215940	-0.042580	0.003901	0.000143	-0.003116
51503	14417461	9.802238	0.248168	-0.031510	-0.004679	-0.004143	-0.002341
51504	14417486	9.791315	0.234389	-0.010305	-0.001889	0.001211	0.000501
51505	14417511	9.796712	0.239875	-0.047681	0.001673	0.001387	-0.005215
51506	14417536	9.794489	0.210827	-0.014161	0.001635	0.000550	-0.004584
51507	14417561	9.782786	0.237907	-0.024144	-0.003469	0.001945	-0.006610
51508	14417586	9.789345	0.235773	-0.003661	-0.002761	-0.006443	-0.005886
51509	14417611	9.794460	0.222009	-0.031364	-0.002199	0.002617	-0.003858
51510	14417636	9.794615	0.245654	-0.027118	0.003225	-0.001037	-0.003631
51511	14417661	9.792323	0.237616	-0.026661	-0.004256	-0.003760	-0.007154
51512	14417686	9.784973	0.218018	-0.029449	-0.003058	-0.002688	-0.000094
51513	14417711	9.794662	0.214692	-0.051064	-0.000586	0.002129	-0.002770
51514	14417736	9.797959	0.241803	-0.020877	-0.003529	0.000010	-0.002387
51515	14417761	9.775286	0.259852	-0.012170	-0.003630	-0.000763	-0.001679
51516	14417786	9.820066	0.223016	-0.015726	0.000241	0.000142	-0.003365
51517	14417811	9.777562	0.241745	-0.034675	0.003624	0.000715	-0.002469
51518	14417836	9.790331	0.249011	-0.034292	-0.006597	-0.001916	-0.000723
51519	14417861	9.801380	0.248437	-0.048699	-0.000715	-0.001818	-0.003111
51520	14417886	9.778021	0.238281	-0.025093	0.000240	-0.001667	-0.002402
51521	14417911	9.820078	0.236273	-0.043470	0.005877	0.004506	-0.002459
51522	14417936	9.806189	0.230038	-0.019000	0.005442	0.001650	-0.006317
51523	14417961	9.775405	0.257252	-0.025538	0.004140	0.002666	-0.003357
51524	14417986	9.799380	0.242303	-0.024214	0.000161	0.003317	0.001530
51525	14418011	9.790860	0.266541	-0.001665	0.000848	0.001642	-0.002454
51526	14418036	9.796362	0.246761	-0.005022	0.002536	0.002834	-0.002837
51527	14418061	9.826383	0.223936	-0.037747	-0.001773	0.003137	-0.005141
51528	14418086	9.817812	0.234588	-0.059758	-0.000986	0.004637	-0.004685
51529	14418111	9.777173	0.262341	-0.014056	0.002289	0.000502	-0.003551
51530	14418136	9.806095	0.231197	-0.005105	0.001714	0.000426	-0.001311
51531	14418161	9.796593	0.262819	0.003596	-0.001477	0.001985	-0.004564
51532	14418186	9.822437	0.231822	-0.031030	-0.001325	0.001208	-0.004445
51533	14418211	9.809688	0.224111	-0.032475	-0.004292	-0.002396	-0.004518
51534	14418236	9.810583	0.255522	-0.010899	0.000498	-0.001597	-0.001313
51535	14418261	9.795250	0.262453	-0.012235	-0.000024	0.001048	0.001396
51536	14418286	9.768480	0.238590	-0.022146	0.000137	0.001825	-0.000909
51537	14418311	9.821165	0.215553	-0.025264	0.004230	0.004093	-0.000465
51538	14418336	9.804781	0.260746	-0.008472	0.005794	0.000553	-0.007544
51539	14418361	9.826686	0.231366	-0.025835	-0.003245	0.000782	-0.006746
51540	14418386	9.802553	0.219170	-0.025225	0.000660	-0.000955	-0.004518
51541	14418411	9.807364	0.220844	-0.036703	0.000529	0.003241	-0.004248
51542	14418436	9.800085	0.198643	-0.048199	0.007701	0.000784	-0.007293
51543	14418461	9.799298	0.227728	-0.056820	0.008842	0.001454	-0.005746
51544	14418486	9.816833	0.226227	-0.039113	0.001435	0.004874	-0.006931
51545	14418511	9.808953	0.212516	-0.045415	0.004609	-0.002897	-0.009550
51546	14418536	9.767612	0.238353	-0.035097	0.003663	-0.000706	-0.005613
51547	14418561	9.820435	0.194617	-0.017140	0.006422	0.000957	-0.006387
51548	14418586	9.783414	0.234845	-0.042862	0.010268	-0.000975	-0.004798
51549	14418611	9.794280	0.233326	-0.026137	0.008027	0.000922	-0.004791
51550	14418636	9.800278	0.218424	-0.041936	0.004168	0.003833	-0.002581
51551	14418661	9.782949	0.230511	-0.036120	0.003290	0.000836	-0.006182
51552	14418686	9.793314	0.231801	-0.019823	0.003405	0.005488	-0.006033
51553	14418711	9.789621	0.232970	-0.041408	0.004320	0.003259	-0.000213
51554	14418736	9.782520	0.259145	-0.025576	0.002924	-0.000894	0.005034
51555	14418761	9.808164	0.232680	-0.036727	0.004017	0.002600	-0.002012
51556	14418786	9.780739	0.249717	-0.024639	0.004239	-0.000301	-0.002088
51557	14418811	9.803486	0.255039	-0.017093	0.000109	-0.001408	-0.000605
51558	14418836	9.817598	0.246772	-0.050743	-0.003451	-0.000638	-0.003482
51559	14418861	9.803432	0.260779	-0.019534	-0.003295	-0.003083	0.000864
51560	14418886	9.783114	0.246722	-0.018351	-0.002912	0.001194	0.002681
51561	14418911	9.794551	0.266786	0.017444	-0.000998	-0.000589	0.000425
51562	14418936	9.794906	0.246220	0.000261	0.004007	0.000788	-0.004581
51563	14418961	9.806362	0.257684	-0.026679	-0.000070	-0.002189	-0.004911
51564	14418986	9.790354	0.243205	-0.026157	-0.005184	-0.002410	-0.002199
51565	14419011	9.799812	0.230943	0.007821	0.000000	-0.002386	-0.003114
51566	14419036	9.790847	0.237426	-0.017024	-0.002886	-0.002307	-0.005485
51567	14419061	9.827800	0.216993	-0.023420	-0.000548	0.001627	0.002103
51568	14419086	9.790344	0.246567	-0.031401	0.000305	-0.001267	0.002410
51569	14419111	9.797782	0.220557	-0.028593	0.002392	-0.002657	-0.000818
51570	14419136	9.783803	0.240995	-0.042328	-0.006481	0.002415	-0.003462
51571	14419161	9.807436	0.217541	-0.041102	-0.001925	-0.004354	-0.003248
51572	14419186	9.796654	0.208536	-0.051105	0.004616	-0.002560	-0.002101
51573	14419211	9.785721	0.236693	-0.034233	0.000383	-0.000314	-0.005734
51574	14419236	9.809711	0.218332	-0.026173	-0.001405	0.001661	-0.005341
51575	14419261	9.807235	0.220480	-0.016141	-0.003754	0.001369	-0.000329
51576	14419286	9.781128	0.231096	-0.051540	-0.004242	-0.003742	-0.000095
51577	14419311	9.792699	0.254954	-0.045264	-0.005600	0.002290	-0.007562
51578	14419336	9.801839	0.200212	-0.026170	0.001504	0.002813	-0.003165
51579	14419361	9.788630	0.233844	-0.035726	-0.001238	-0.003630	-0.002544
51580	14419386	9.785058	0.250910	-0.033292	-0.006630	0.000465	-0.006993
51581	14419411	9.786874	0.245201	-0.006992	-0.006180	-0.002870	0.001004
51582	14419436	9.803393	0.259308	-0.011786	-0.004886	0.000502	-0.004052
51583	14419461	9.812286	0.243578	-0.032008	-0.002946	-0.002506	-0.005737
51584	14419486	9.804179	0.238945	-0.020495	-0.010289	-0.004493	0.002606
51585	14419511	9.798950	0.243361	-0.030476	-0.000280	-0.001214	0.000422
51586	14419536	9.796244	0.260092	-0.011339	-0.002906	-0.003330	-0.000034
51587	14419561	9.789310	0.239565	-0.005445	-0.005697	0.001910	-0.003721
51588	14419586	9.815913	0.217377	-0.026695	-0.007461	0.003310	-0.000180
51589	14419611	9.789925	0.257337	0.014172	-0.000684	0.001355	-0.002453
51590	14419636	9.798482	0.262255	0.006391	-0.007804	-0.002585	-0.003929
51591	14419661	9.788182	0.250869	0.000235	-0.005226	-0.000994	-0.004573
51592	14419686	9.793583	0.242497	-0.008411	-0.009260	0.000940	-0.003968
51593	14419711	9.819206	0.245047	0.002056	-0.002034	0.001392	-0.004634
51594	14419736	9.812377	0.254333	0.008184	-0.004151	-0.004716	-0.001962
51595	14419761	9.779850	0.237142	-0.010292	-0.006776	-0.002763	-0.003867
51596	14419786	9.800476	0.233342	-0.026178	-0.003797	-0.001539	-0.000791
51597	14419811	9.786318	0.233525	-0.047213	-0.010394	-0.001729	-0.003341
51598	14419836	9.792159	0.242027	-0.008409	-0.003371	-0.001019	-0.002523
51599	14419861	9.802190	0.245151	-0.019000	-0.009257	0.000818	-0.004487
51600	14419886	9.821829	0.209682	-0.043129	-0.005895	-0.008355	-0.002114
51601	14419911	9.809193	0.228002	-0.039628	-0.007123	0.000212	-0.004700
51602	14419936	9.768764	0.251395	-0.019273	-0.000054	0.001574	-0.002712
51603	14419961	9.786558	0.237297	-0.018442	-0.003973	-0.002044	0.000800
51604	14419986	9.801626	0.226508	-0.043495	-0.003053	-0.004750	-0.000176
51605	14420011	9.779438	0.254462	-0.056283	-0.002362	-0.002676	-0.004788
51606	14420036	9.821617	0.233107	-0.056952	-0.004297	0.000402	0.000046
51607	14420061	9.787395	0.236499	0.003163	-0.000955	0.002077	0.001463
51608	14420086	9.807537	0.240113	-0.028116	-0.006321	0.001265	-0.001739
51609	14420111	9.821856	0.240792	-0.032528	-0.005877	-0.002404	0.001189
51610	14420136	9.797679	0.229098	-0.027600	-0.003433	-0.002883	-0.002477
51611	14420161	9.784283	0.243391	-0.047665	-0.006023	0.000373	0.001915
51612	14420186	9.768051	0.266378	-0.009281	0.000881	-0.003189	0.000276
51613	14420211	9.797684	0.222758	-0.013737	-0.003044	-0.005341	-0.004032
51614	14420236	9.787525	0.247645	-0.042869	-0.002986	0.001593	0.001974
51615	14420261	9.794588	0.238174	-0.007045	-0.009742	-0.005572	0.001954
51616	14420286	9.779607	0.253127	-0.003095	-0.005555	-0.002658	-0.001632
51617	14420311	9.785151	0.241751	-0.030497	-0.004150	-0.004379	0.000471
51618	14420336	9.784703	0.272403	-0.018427	-0.006764	-0.000806	-0.001109
51619	14420361	9.783999	0.238792	0.008849	-0.006816	-0.003198	-0.001632
51620	14420386	9.798114	0.228014	-0.018991	-0.005271	-0.001627	-0.003488
51621	14420411	9.769797	0.234413	0.001282	-0.007132	-0.003327	0.000741
51622	14420436	9.786150	0.237572	-0.029467	-0.002541	-0.001198	-0.006056
51623	14420461	9.782140	0.239422	-0.000687	-0.007525	-0.001214	-0.003481
51624	14420486	9.784523	0.235511	0.007447	-0.009677	0.002043	-0.003968
51625	14420511	9.800048	0.211398	0.010283	0.000866	0.001277	0.002275
51626	14420536	9.807520	0.232200	-0.006081	-0.004290	-0.002120	-0.001378
51627	14420561	9.781395	0.218862	0.007961	-0.003994	-0.001410	-0.003171
51628	14420586	9.799443	0.241955	-0.030506	-0.002407	-0.001058	-0.002018
51629	14420611	9.813892	0.232263	-0.036348	-0.004463	-0.004779	-0.001267
51630	14420636	9.811155	0.218864	-0.029563	-0.003143	-0.000036	-0.002980
51631	14420661	9.800209	0.217674	-0.028117	-0.006233	-0.003378	0.001571
51632	14420686	9.813733	0.238702	-0.024778	0.000870	-0.000985	0.002785
51633	14420711	9.789120	0.230492	-0.032828	-0.002764	0.000036	-0.002716
51634	14420736	9.805711	0.229612	-0.019497	-0.002985	0.000665	-0.006691
51635	14420761	9.793250	0.235057	-0.016586	-0.003664	-0.005864	-0.002684
51636	14420786	9.816623	0.191065	-0.010927	-0.003690	-0.000879	-0.001055
51637	14420811	9.800504	0.231969	-0.027561	-0.005358	0.003286	-0.003146
51638	14420836	9.787646	0.236253	-0.037651	-0.007309	-0.002313	-0.005731
51639	14420861	9.791027	0.232942	-0.036671	-0.005434	-0.002401	-0.002468
51640	14420886	9.779281	0.252530	-0.026498	-0.002421	0.003926	-0.001091
51641	14420911	9.804593	0.251592	-0.036250	-0.007762	0.000337	-0.003408
51642	14420936	9.783365	0.264306	-0.017456	-0.004926	-0.002001	0.001445
51643	14420961	9.794635	0.234930	-0.009399	-0.002834	-0.003453	-0.000426
51644	14420986	9.784412	0.251353	-0.006920	-0.002283	0.001402	-0.000012
51645	14421011	9.782006	0.265428	-0.032784	0.002353	0.000982	0.003305
51646	14421036	9.796958	0.275719	-0.004554	-0.004005	0.001110	-0.003164
51647	14421061	9.802482	0.252513	-0.003243	-0.005257	-0.004277	-0.003567
51648	14421086	9.790015	0.257004	0.000238	-0.005966	-0.001632	-0.000989
51649	14421111	9.799502	0.230351	-0.016622	-0.006090	-0.003967	-0.001322
51650	14421136	9.792513	0.254498	-0.013202	-0.008735	-0.001894	-0.009638
51651	14421161	9.803303	0.227928	-0.012739	-0.001565	0.001106	0.001965
51652	14421186	9.781480	0.210730	0.008486	-0.003684	0.001320	0.001073
51653	14421211	9.787242	0.254773	-0.009305	0.000349	0.003128	-0.001431
51654	14421236	9.786039	0.244552	-0.026089	-0.007154	0.001514	-0.000963
51655	14421261	9.779411	0.239176	-0.020795	-0.004038	-0.001986	-0.000483
51656	14421286	9.807584	0.236331	-0.026675	-0.003949	0.001043	-0.004314
51657	14421311	9.805754	0.228173	-0.022339	-0.005764	0.001855	-0.004368
51658	14421336	9.774788	0.261236	-0.011186	-0.004245	0.000922	0.001210
51659	14421361	9.787840	0.239923	0.000254	-0.005966	0.000499	0.000374
51660	14421386	9.776989	0.243509	-0.023617	-0.005998	0.003204	-0.005126
51661	14421411	9.790609	0.225763	-0.033779	-0.003806	0.000599	-0.003350
51662	14421436	9.786594	0.238367	-0.026102	-0.002643	0.002822	-0.000325
51663	14421461	9.796376	0.233267	-0.055408	-0.005896	-0.001566	0.001578
51664	14421486	9.789172	0.217935	-0.016518	-0.007312	0.000013	-0.006430
51665	14421511	9.803436	0.233694	-0.043437	-0.008118	-0.000578	-0.003225
51666	14421536	9.792259	0.243256	-0.026611	-0.007868	-0.000577	-0.004245
51667	14421561	9.801237	0.248542	-0.025725	-0.002940	-0.002488	-0.003247
51668	14421586	9.795006	0.248828	-0.021332	-0.007600	-0.000429	0.002614
51669	14421611	9.777424	0.247803	-0.024222	-0.009044	-0.004087	-0.004965
51670	14421636	9.790919	0.231188	-0.015595	-0.004569	-0.001420	-0.002144
51671	14421661	9.781692	0.248300	-0.022227	-0.003833	0.001363	-0.005786
51672	14421686	9.767553	0.274177	-0.022660	-0.006561	-0.001325	-0.004186
51673	14421711	9.773731	0.276170	-0.025126	-0.004385	-0.001219	-0.000855
51674	14421736	9.805438	0.259702	-0.034871	-0.008850	-0.002018	-0.003803
51675	14421761	9.806839	0.245882	-0.000816	-0.008020	-0.001869	-0.004640
51676	14421786	9.809046	0.224170	-0.008025	-0.004631	-0.003612	-0.002286
51677	14421811	9.797898	0.241198	-0.010718	-0.002331	0.006953	-0.003965
51678	14421836	9.809403	0.237543	-0.013784	-0.007325	-0.003469	-0.002919
51679	14421861	9.802367	0.237717	-0.034797	-0.002140	0.003351	0.002623
51680	14421886	9.801157	0.243374	-0.002230	-0.003329	-0.001836	0.002342
51681	14421911	9.776796	0.255142	-0.015056	-0.002833	-0.001054	0.003248
51682	14421936	9.791094	0.256325	-0.018483	-0.005002	-0.001808	0.000934
51683	14421961	9.800498	0.226120	-0.017544	-0.010961	0.000146	-0.001605
51684	14421986	9.793364	0.230446	-0.026629	-0.002746	-0.002421	-0.003244
51685	14422011	9.815386	0.213893	-0.009916	-0.007404	0.000915	-0.006618
51686	14422036	9.806812	0.223061	-0.030958	0.001115	0.003473	0.000359
51687	14422061	9.791042	0.253747	-0.005070	-0.006454	-0.002024	0.003508
51688	14422086	9.794500	0.245406	-0.008008	-0.009347	-0.006677	-0.005430
51689	14422111	9.808893	0.233511	-0.001311	-0.013120	0.000182	0.001290
51690	14422136	9.786066	0.251434	-0.045752	-0.006674	0.001080	0.004999
51691	14422161	9.795469	0.230973	-0.059265	-0.005253	-0.004016	-0.000679
51692	14422186	9.796171	0.239151	-0.035272	-0.005169	-0.000782	-0.003359
51693	14422211	9.819560	0.235175	-0.037268	-0.006957	0.001386	-0.001870
51694	14422236	9.778523	0.232456	-0.017875	-0.002131	0.002894	-0.000653
51695	14422261	9.800087	0.233588	-0.041452	-0.005744	0.003406	-0.002563
51696	14422286	9.804933	0.220139	-0.026191	-0.005637	0.001791	-0.002953
51697	14422311	9.796911	0.213867	-0.027109	-0.007062	0.000547	-0.001162
51698	14422336	9.796140	0.233205	-0.018499	-0.000030	-0.001349	-0.005169
51699	14422361	9.803502	0.226026	-0.040031	-0.004639	0.004978	-0.002877
51700	14422386	9.811483	0.230228	-0.028648	-0.003842	-0.002116	-0.001638
51701	14422411	9.790637	0.229792	-0.043903	-0.004797	-0.004920	-0.007930
51702	14422436	9.807728	0.218534	-0.012746	-0.009800	0.002109	-0.003141
51703	14422461	9.782866	0.233699	-0.028052	-0.011121	-0.003284	-0.005147
51704	14422486	9.799878	0.236965	-0.014155	-0.009602	0.001985	-0.001983
51705	14422511	9.804060	0.246580	-0.015681	-0.009802	-0.004360	-0.006123
51706	14422536	9.784968	0.251058	-0.020819	-0.006363	0.001079	0.001600
51707	14422561	9.812242	0.239518	-0.017108	-0.005622	0.001736	-0.000329
51708	14422586	9.789957	0.269550	-0.015607	-0.001457	-0.002331	0.002204
51709	14422611	9.793085	0.248391	-0.016611	-0.003187	-0.005415	-0.010504
51710	14422636	9.777570	0.248566	-0.049476	0.000647	0.004236	0.000380
51711	14422661	9.809396	0.245923	-0.030555	-0.006469	-0.000489	-0.005338
51712	14422686	9.796546	0.269477	-0.001750	-0.010966	-0.003596	-0.001884
51713	14422711	9.770078	0.249579	0.005147	-0.007708	0.002860	-0.001080
51714	14422736	9.784281	0.256385	0.005046	-0.006996	0.000679	-0.000325
51715	14422761	9.795409	0.252588	-0.017519	-0.008011	0.000463	0.000700
51716	14422786	9.800595	0.213064	-0.004643	-0.004564	-0.003479	0.000924
51717	14422811	9.808521	0.222598	0.003469	-0.007296	-0.002372	-0.002594
51718	14422836	9.783181	0.242087	-0.018888	-0.000980	0.000513	-0.004257
51719	14422861	9.783928	0.258671	-0.019836	-0.006525	-0.000156	-0.002132
51720	14422886	9.793806	0.232750	-0.025167	-0.003414	-0.001387	0.000034
51721	14422911	9.798903	0.247651	-0.031884	-0.005601	0.001027	-0.000463
51722	14422936	9.788683	0.222268	-0.021851	-0.002234	-0.004676	-0.004475
51723	14422961	9.805043	0.210093	-0.024322	-0.010313	-0.003774	0.002028
51724	14422986	9.799765	0.216315	-0.030971	-0.004587	-0.000836	-0.002077
51725	14423011	9.791009	0.222642	-0.013719	-0.006466	-0.004429	-0.003183
51726	14423036	9.808630	0.217876	-0.003234	-0.000586	-0.003795	0.000593
51727	14423061	9.802721	0.257085	-0.053586	-0.004010	-0.005032	-0.001843
51728	14423086	9.786068	0.235855	-0.013255	-0.003715	-0.008316	-0.001413
51729	14423111	9.785295	0.240115	-0.049596	-0.012411	-0.002450	0.001143
51730	14423136	9.783046	0.219956	-0.031811	-0.003856	0.002341	-0.002062
51731	14423161	9.791571	0.231153	-0.045815	0.000617	-0.003517	-0.000504
51732	14423186	9.795891	0.219617	-0.029489	0.001030	-0.000092	-0.002342
51733	14423211	9.803259	0.243921	-0.036715	-0.000651	0.000532	0.001192
51734	14423236	9.807981	0.241431	-0.024308	-0.006191	-0.000210	0.003323
51735	14423261	9.800933	0.241155	-0.039103	-0.001460	-0.000395	-0.002210
51736	14423286	9.786914	0.258096	-0.040456	-0.006868	0.002417	-0.001988
51737	14423311	9.806560	0.250787	-0.044452	-0.002031	-0.000727	-0.001952
51738	14423336	9.807536	0.238164	-0.022844	-0.005323	0.001924	-0.004174
51739	14423361	9.784812	0.270221	-0.032377	-0.007090	-0.002618	0.000615
51740	14423386	9.796762	0.229625	-0.035280	-0.008416	-0.001158	0.001070
51741	14423411	9.799158	0.263195	-0.027223	-0.006934	-0.005585	0.001048
51742	14423436	9.809582	0.224319	-0.016590	-0.003082	0.000350	-0.001819
51743	14423461	9.780602	0.259143	-0.020839	-0.004017	-0.000894	-0.003162
51744	14423486	9.800175	0.253182	-0.018040	-0.007868	-0.000577	-0.005083
51745	14423511	9.821659	0.215646	-0.027735	0.003840	-0.001909	-0.001080
51746	14423536	9.815261	0.225321	-0.012879	-0.001295	-0.006276	-0.005712
51747	14423561	9.771022	0.254031	-0.002133	-0.009990	-0.004360	-0.004706
51748	14423586	9.806247	0.256866	-0.005090	-0.000720	0.002195	-0.006050
51749	14423611	9.804956	0.241047	0.003958	-0.003444	-0.000820	-0.002910
51750	14423636	9.778640	0.222532	-0.016459	-0.002198	0.000367	-0.004065
51751	14423661	9.795034	0.238159	-0.004518	-0.004901	0.003302	-0.000839
51752	14423686	9.800449	0.234323	-0.023357	-0.005317	-0.006607	-0.006019
51753	14423711	9.799908	0.235079	-0.016491	-0.005504	0.006261	-0.001393
51754	14423736	9.809749	0.210528	-0.014741	-0.003183	-0.003013	-0.002858
51755	14423761	9.797428	0.242688	-0.015577	-0.002149	0.003015	-0.003476
51756	14423786	9.765999	0.247647	-0.024570	-0.007617	-0.002187	-0.002973
51757	14423811	9.794301	0.225963	-0.014168	-0.000027	-0.001203	0.000152
51758	14423836	9.808010	0.206540	-0.034814	-0.002322	0.000493	-0.000158
51759	14423861	9.806681	0.233436	-0.028993	0.000876	0.005080	0.000697
51760	14423886	9.828729	0.256907	-0.021554	-0.009759	-0.001253	-0.000912
51761	14423911	9.773636	0.249220	-0.031315	-0.007738	-0.000370	-0.000268
51762	14423936	9.802799	0.228367	-0.006961	-0.007035	0.003773	-0.003776
51763	14423961	9.815831	0.216805	-0.011371	-0.004265	0.000711	-0.007011
51764	14423986	9.817553	0.241175	-0.030623	-0.003026	-0.003645	0.000855
51765	14424011	9.791935	0.238718	-0.043841	-0.001648	0.001611	0.000176
51766	14424036	9.779255	0.257876	-0.032754	-0.006908	-0.000231	-0.002259
51767	14424061	9.775533	0.253101	-0.037557	-0.006610	-0.001381	0.002161
51768	14424086	9.794910	0.261845	-0.030004	-0.008976	-0.002150	-0.006111
51769	14424111	9.803878	0.238974	-0.049161	0.001542	0.001790	-0.002974
51770	14424136	9.812593	0.253383	-0.024316	-0.008927	0.000836	-0.000834
51771	14424161	9.816257	0.258459	-0.009532	-0.002043	-0.004476	-0.001979
51772	14424186	9.784611	0.248413	-0.032850	-0.000910	-0.003283	0.002971
51773	14424211	9.773684	0.241976	-0.023653	-0.003536	0.000548	0.000051
51774	14424236	9.795517	0.280539	-0.013213	-0.006814	0.001065	-0.000130
51775	14424261	9.786884	0.246228	-0.010772	-0.004615	0.000072	-0.001751
51776	14424286	9.781973	0.266386	-0.027551	-0.002997	-0.002360	-0.001250
51777	14424311	9.799084	0.235326	-0.037194	-0.005411	-0.000645	0.004850
51778	14424336	9.797369	0.243914	-0.007018	-0.011475	-0.001860	-0.001931
51779	14424361	9.796077	0.232998	-0.007901	-0.009388	0.003543	0.000334
51780	14424386	9.793076	0.239983	0.002660	-0.006187	0.001137	-0.004245
51781	14424411	9.781456	0.237131	-0.041368	-0.008602	0.002845	0.000525
51782	14424436	9.809367	0.238466	-0.010880	-0.005358	-0.000720	-0.002654
51783	14424461	9.808622	0.223325	-0.014758	-0.005008	-0.004014	-0.003570
51784	14424486	9.811568	0.209852	-0.002722	-0.005220	0.001164	0.000885
51785	14424511	9.771353	0.235231	-0.019356	-0.008288	-0.003223	-0.000025
51786	14424536	9.803992	0.209397	-0.007578	-0.004835	-0.007240	-0.000958
51787	14424561	9.780480	0.237023	-0.036170	-0.004429	-0.001411	0.001515
51788	14424586	9.790828	0.238254	-0.016965	-0.010817	0.002101	0.001866
51789	14424611	9.783225	0.236777	-0.016023	-0.005262	0.000316	-0.001617
51790	14424636	9.790057	0.237313	-0.045366	-0.009307	-0.005379	-0.000100
51791	14424661	9.805268	0.229060	-0.022357	0.001936	-0.000396	-0.000226
51792	14424686	9.800407	0.207045	-0.038622	-0.003757	-0.001219	-0.007148
51793	14424711	9.829417	0.212663	-0.044042	-0.006491	-0.001846	-0.006762
51794	14424736	9.786487	0.217827	-0.044316	-0.009307	0.000763	-0.000256
51795	14424761	9.796804	0.232192	-0.047310	-0.004037	-0.002113	-0.000542
51796	14424786	9.783748	0.234373	-0.019456	-0.005968	-0.005303	0.004576
51797	14424811	9.797626	0.232837	-0.026229	-0.002547	-0.004548	-0.000116
51798	14424836	9.794249	0.239030	-0.030933	-0.002991	-0.000481	0.001320
51799	14424861	9.820397	0.233841	-0.014755	-0.006571	0.001660	0.001726
51800	14424886	9.792934	0.235922	-0.044354	-0.005236	-0.002658	-0.002921
51801	14424911	9.786868	0.257457	-0.032269	-0.003153	0.004821	-0.000253
51802	14424936	9.812170	0.210683	-0.023359	-0.004260	-0.000830	-0.000411
51803	14424961	9.794517	0.247314	-0.015620	-0.004259	-0.000758	0.001839
51804	14424986	9.791766	0.246123	-0.029930	-0.005962	0.002177	-0.002311
51805	14425011	9.801560	0.254034	-0.013764	-0.003330	-0.001848	0.000033
51806	14425036	9.792704	0.239273	-0.015129	-0.006476	0.000294	-0.001033
51807	14425061	9.815995	0.245783	-0.019561	-0.003646	-0.000302	-0.002074
51808	14425086	9.796262	0.233473	-0.039087	-0.002132	-0.001433	-0.001256
51809	14425111	9.774142	0.241931	-0.022217	-0.000513	0.000151	0.000425
51810	14425136	9.807026	0.235602	-0.012359	-0.006364	-0.001258	-0.000083
51811	14425161	9.823977	0.224313	-0.035401	-0.003827	-0.000630	-0.002277
51812	14425186	9.789417	0.245207	-0.033804	-0.003608	0.000539	-0.002643
51813	14425211	9.784391	0.259673	-0.020858	-0.002402	-0.001386	-0.003621
51814	14425236	9.811823	0.234268	-0.014259	-0.010355	-0.002748	-0.002073
51815	14425261	9.813158	0.240959	-0.014216	-0.009263	0.001213	-0.003213
51816	14425286	9.794638	0.235461	-0.010803	-0.005753	0.001463	-0.005072
51817	14425311	9.781888	0.231629	-0.020382	-0.003091	-0.006047	-0.004864
51818	14425336	9.782684	0.249373	-0.032710	-0.007509	0.004736	-0.000435
51819	14425361	9.796148	0.227311	-0.008395	-0.000164	0.001116	-0.001308
51820	14425386	9.787380	0.227422	-0.053449	-0.007443	-0.003660	-0.000224
51821	14425411	9.786277	0.220709	-0.015544	-0.003885	0.001176	-0.002386
51822	14425436	9.811928	0.211981	0.012105	-0.006852	-0.001639	0.003503
51823	14425461	9.789621	0.214887	-0.005509	-0.011349	-0.001538	-0.001228
51824	14425486	9.787663	0.260024	-0.009259	-0.006478	0.004360	-0.004549
51825	14425511	9.829143	0.217355	-0.009557	-0.004458	-0.001164	-0.005357
51826	14425536	9.815007	0.218945	-0.037280	-0.005922	-0.003177	0.000286
51827	14425561	9.789063	0.222467	-0.008390	-0.003631	-0.000228	0.001520
51828	14425586	9.807645	0.233016	-0.028175	-0.003293	-0.003466	-0.002547
51829	14425611	9.822425	0.225387	-0.017679	-0.002298	-0.001752	0.004458
51830	14425636	9.787409	0.243430	-0.012207	-0.004758	0.000386	-0.002386
51831	14425661	9.779160	0.226526	-0.029958	-0.004154	-0.002575	-0.003110
51832	14425686	9.792690	0.238248	-0.009379	-0.003125	-0.004816	-0.003511
51833	14425711	9.808549	0.234334	-0.026215	-0.006372	-0.000660	0.005431
51834	14425736	9.792183	0.252826	-0.034739	-0.003821	0.001313	-0.001232
51835	14425761	9.803369	0.233469	-0.032480	-0.005405	-0.003108	0.001316
51836	14425786	9.779939	0.277325	-0.030360	-0.005433	0.003603	-0.004487
51837	14425811	9.794909	0.258321	-0.023333	-0.007068	-0.005460	0.000985
51838	14425836	9.788555	0.268157	-0.017488	-0.006028	-0.001630	0.000167
51839	14425861	9.795603	0.250195	-0.042059	-0.004354	-0.004585	-0.004533
51840	14425886	9.786773	0.230480	-0.037621	-0.006947	-0.003262	0.000483
51841	14425911	9.778852	0.244818	-0.020347	-0.007452	-0.001074	0.001334
51842	14425936	9.813277	0.250534	-0.052149	-0.006919	-0.002173	-0.002530
51843	14425961	9.784595	0.224659	-0.060130	-0.004803	-0.002323	-0.002274
51844	14425986	9.774308	0.236005	-0.035627	-0.005248	-0.000200	-0.001942
51845	14426011	9.787737	0.233076	-0.046240	-0.005195	0.000180	-0.002326
51846	14426036	9.779625	0.227988	-0.033279	-0.006559	-0.003390	-0.001702
51847	14426061	9.806853	0.216782	-0.023332	-0.009322	-0.000790	-0.000463
51848	14426086	9.799459	0.235651	-0.018993	-0.004680	-0.002198	-0.004776
51849	14426111	9.827250	0.196017	-0.045475	-0.001156	0.000128	-0.000544
51850	14426136	9.794863	0.227251	-0.030480	-0.004268	-0.001228	-0.006893
51851	14426161	9.814940	0.217818	-0.023397	-0.002924	-0.003068	-0.002863
51852	14426186	9.817618	0.229176	-0.017589	-0.004183	0.002596	-0.001039
51853	14426211	9.799568	0.222219	-0.010842	-0.004473	-0.000580	-0.003935
51854	14426236	9.786062	0.236300	-0.011671	-0.007077	0.002998	-0.002305
51855	14426261	9.792095	0.216577	-0.022789	-0.000653	-0.001797	-0.000612
51856	14426286	9.776996	0.231267	-0.000185	-0.004929	-0.002070	-0.001502
51857	14426311	9.763148	0.244195	-0.018352	-0.003724	-0.002053	-0.004646
51858	14426336	9.806588	0.229343	-0.003677	-0.001176	0.000249	-0.006187
51859	14426361	9.809366	0.213767	-0.038181	0.000466	-0.000882	-0.004911
51860	14426386	9.783904	0.251761	-0.000669	-0.003627	0.003251	-0.003272
51861	14426411	9.777594	0.277318	-0.035681	-0.006649	-0.000027	0.000696
51862	14426436	9.831238	0.248899	-0.026896	-0.007603	-0.009024	0.000195
51863	14426461	9.797631	0.229980	-0.022321	-0.008334	-0.001879	-0.003678
51864	14426486	9.803311	0.231364	-0.019482	-0.004546	0.000009	-0.001299
51865	14426511	9.807381	0.249537	-0.020003	0.002769	-0.002849	-0.005183
51866	14426536	9.789948	0.231153	-0.013155	0.000085	-0.000753	-0.003435
51867	14426561	9.801547	0.217047	-0.013675	-0.002947	0.002038	-0.001808
51868	14426586	9.788908	0.242097	-0.021808	-0.005655	-0.001296	0.002156
51869	14426611	9.808463	0.246360	-0.035268	-0.000171	0.003637	0.001143
51870	14426636	9.768234	0.252154	-0.010214	-0.006647	-0.000548	-0.001548
51871	14426661	9.801014	0.253284	0.000669	-0.010298	0.000045	0.002176
51872	14426686	9.788457	0.259098	0.015075	-0.002520	-0.004917	0.004762
51873	14426711	9.815051	0.233496	0.003986	-0.004283	0.002021	0.001916
51874	14426736	9.777899	0.267091	0.011775	-0.008319	-0.001802	0.002551
51875	14426761	9.780155	0.253819	-0.015562	-0.002562	-0.004159	-0.001907
51876	14426786	9.766990	0.242325	-0.020775	-0.002140	-0.003111	0.000408
51877	14426811	9.784694	0.238807	-0.027591	-0.010431	-0.003900	0.003631
51878	14426836	9.775829	0.251211	-0.004012	-0.003566	-0.000621	-0.000283
51879	14426861	9.811783	0.210399	-0.037309	-0.006703	-0.004879	-0.000234
51880	14426886	9.799158	0.225805	-0.028130	-0.006036	-0.005582	-0.001138
51881	14426911	9.796774	0.217424	-0.011816	-0.005616	-0.004858	-0.000174
51882	14426936	9.803576	0.215396	-0.029550	-0.000124	-0.000176	-0.000612
51883	14426961	9.796608	0.239515	-0.029055	-0.007695	-0.001794	-0.000215
51884	14426986	9.814922	0.229544	-0.043058	-0.004698	-0.003751	-0.003891
51885	14427011	9.816599	0.199357	-0.023822	-0.006069	0.001401	-0.000846
51886	14427036	9.815647	0.236250	-0.020509	-0.005436	-0.002263	0.001445
51887	14427061	9.785027	0.221585	-0.045239	-0.004154	-0.000054	-0.000408
51888	14427086	9.808811	0.217449	-0.033391	-0.007528	0.000787	-0.004816
51889	14427111	9.795457	0.224550	-0.044817	-0.004648	0.001104	-0.000781
51890	14427136	9.794847	0.227670	-0.028621	-0.000274	-0.005797	-0.003082
51891	14427161	9.808211	0.225417	-0.028663	-0.002711	-0.005843	-0.002365
51892	14427186	9.779890	0.244676	-0.033232	-0.003229	0.000536	-0.006756
51893	14427211	9.796058	0.209720	-0.034759	-0.007010	0.000671	-0.003409
51894	14427236	9.787409	0.209907	-0.022279	-0.010113	-0.000417	-0.003274
51895	14427261	9.803681	0.203958	-0.024675	-0.007233	0.004028	-0.001788
51896	14427286	9.792505	0.221841	-0.024233	-0.003742	0.000732	-0.001617
51897	14427311	9.780455	0.229164	-0.016944	-0.002322	0.002699	-0.001287
51898	14427336	9.804760	0.230962	-0.021381	-0.005680	-0.000657	-0.001948
51899	14427361	9.804394	0.222869	-0.022866	-0.000171	-0.002491	0.002395
51900	14427386	9.793973	0.251045	-0.010858	-0.004336	-0.004897	-0.001070
51901	14427411	9.793634	0.235340	-0.002237	-0.007947	-0.002457	-0.007655
51902	14427436	9.806633	0.227457	-0.007956	-0.008208	0.000332	-0.000460
51903	14427461	9.798691	0.260861	-0.025637	-0.007175	0.001958	-0.003916
51904	14427486	9.819129	0.260991	-0.018166	-0.006339	-0.002551	-0.003874
51905	14427511	9.802558	0.246799	-0.005572	-0.005268	-0.001295	0.001706
51906	14427536	9.805733	0.232016	-0.027164	-0.003010	0.000095	-0.000665
51907	14427561	9.771331	0.274123	-0.019268	-0.007120	0.005010	0.002904
51908	14427586	9.775743	0.257800	-0.004514	-0.001357	-0.003286	0.004001
51909	14427611	9.810716	0.247054	-0.015207	-0.006133	-0.000471	-0.000916
51910	14427636	9.802675	0.241250	-0.014209	-0.005297	-0.000581	-0.000019
51911	14427661	9.803452	0.228252	-0.034874	-0.008067	-0.003795	0.003113
51912	14427686	9.808100	0.198901	-0.033857	-0.004080	-0.000623	-0.000480
51913	14427711	9.805105	0.235084	-0.008394	-0.003378	0.003511	-0.002058
51914	14427736	9.789455	0.242328	-0.034774	-0.004353	-0.000115	-0.001168
51915	14427761	9.795419	0.254146	-0.021366	-0.009483	-0.000155	-0.005013
51916	14427786	9.798937	0.236937	-0.016114	-0.008404	-0.003740	-0.001314
51917	14427811	9.791438	0.226428	-0.014681	-0.001799	-0.004210	-0.001782
51918	14427836	9.799430	0.237076	-0.018028	-0.004734	-0.002459	-0.004785
51919	14427861	9.777210	0.218059	-0.007333	-0.007364	0.001961	-0.003204
51920	14427886	9.805136	0.212837	-0.044907	-0.004742	-0.002068	-0.001699
51921	14427911	9.769567	0.223339	-0.014578	-0.001869	-0.004156	-0.005370
51922	14427936	9.810495	0.221766	-0.006096	0.003612	-0.003017	-0.000760
51923	14427961	9.811192	0.222341	-0.042072	-0.005896	-0.002216	-0.002082
51924	14427986	9.797488	0.227579	0.006870	0.000530	-0.003010	-0.003260
51925	14428011	9.805435	0.219244	-0.031940	-0.003152	0.000483	0.000238
51926	14428036	9.790749	0.204540	-0.012257	-0.010407	-0.003006	-0.000277
51927	14428061	9.801738	0.247158	-0.027632	-0.004984	-0.002526	-0.002214
51928	14428086	9.817348	0.223807	-0.038716	-0.001606	-0.000137	-0.003041
51929	14428111	9.805807	0.230793	-0.037223	-0.002307	-0.000288	-0.005995
51930	14428136	9.801958	0.233523	-0.034324	-0.001857	-0.000206	-0.002338
51931	14428161	9.769790	0.241269	-0.008363	-0.001805	-0.003956	-0.002992
51932	14428186	9.799692	0.257107	-0.024758	-0.004026	-0.000510	-0.003482
51933	14428211	9.801403	0.231863	-0.019001	-0.007357	-0.002572	-0.004385
51934	14428236	9.779325	0.244851	-0.016975	-0.003134	-0.002496	-0.005168
51935	14428261	9.803304	0.260437	0.000149	-0.006066	-0.002337	0.003627
51936	14428286	9.768884	0.277870	-0.014063	-0.004977	-0.000720	-0.002903
51937	14428311	9.786116	0.267559	-0.006961	-0.005168	-0.000849	-0.002907
51938	14428336	9.793751	0.279406	-0.032903	-0.006297	-0.003390	-0.001574
51939	14428361	9.775804	0.256088	-0.010215	0.000103	0.000797	-0.002781
51940	14428386	9.789966	0.261309	-0.000763	-0.006457	-0.002617	-0.002271
51941	14428411	9.807205	0.262726	-0.017638	-0.007142	-0.005084	-0.001003
51942	14428436	9.790378	0.248625	-0.040087	-0.004014	-0.004831	-0.001521
51943	14428461	9.789517	0.265334	-0.013685	-0.006500	-0.001393	-0.004062
51944	14428486	9.783270	0.266955	-0.006982	-0.012855	-0.004593	0.001328
51945	14428511	9.782391	0.270626	-0.026108	-0.003318	-0.002559	-0.003050
51946	14428536	9.762245	0.267014	0.005180	-0.002341	0.001411	-0.000142
51947	14428561	9.795393	0.244681	0.002624	-0.005820	-0.000072	0.002289
51948	14428586	9.798415	0.235374	-0.007029	-0.005037	-0.004581	0.002138
51949	14428611	9.781173	0.251987	-0.024181	-0.000201	-0.003397	0.005016
51950	14428636	9.802656	0.239250	-0.005161	-0.002271	-0.005385	-0.002556
