// General information: 
//  MT Manager version: 2022.0.0 
//  XDA version: 2022.0.0 build 7085 rev 119802 built on 2022-11-08
// Device information: 
//  DeviceId: 037004D1
//  ProductCode: MTi-300-2A5G4
//  Firmware Version: 1.4.1
//  Hardware Version: 2.1.0
// Device settings: 
//  Filter Profile: general(39.16)
//  Option Flags: Orientation Smoother Disabled, Position/Velocity Smoother Disabled, Continuous Zero Rotation Update Disabled, AHS Disabled, ICC Disabled
// Coordinate system: ENU
PacketCounter	SampleTimeFine	Acc_X	Acc_Y	Acc_Z	Gyr_X	Gyr_Y	Gyr_Z
22790	13699636	-0.016970	0.044584	-9.828924	-0.007033	0.003672	-0.008386
22791	13699661	-0.029228	0.051651	-9.807776	-0.004287	-0.003560	0.002608
22792	13699686	-0.008211	0.023964	-9.838557	-0.004467	-0.004025	0.000930
22793	13699711	-0.023337	0.047795	-9.826982	-0.004530	-0.002277	0.000623
22794	13699736	0.010815	0.014286	-9.810358	-0.005785	-0.002813	0.001962
22795	13699761	-0.016626	0.048454	-9.832769	-0.005147	-0.001061	-0.000523
22796	13699786	-0.018591	0.044801	-9.813576	-0.006156	-0.001474	-0.003606
22797	13699811	-0.006559	0.044721	-9.828017	-0.007983	0.001861	-0.000505
22798	13699836	-0.020185	0.054104	-9.803504	-0.003694	-0.000125	0.001143
22799	13699861	-0.012652	0.055957	-9.799224	0.000711	-0.001603	-0.000156
22800	13699886	-0.007192	0.052590	-9.819871	-0.001515	-0.000814	-0.008422
22801	13699911	0.002616	0.032403	-9.822792	-0.006889	0.001425	-0.003844
22802	13699936	0.012438	0.035111	-9.802705	-0.007211	-0.000311	0.002433
22803	13699961	-0.000185	0.055394	-9.809351	-0.003076	0.000261	-0.003473
22804	13699986	-0.013401	0.048582	-9.812653	-0.003345	-0.001290	-0.003350
22805	13700011	0.003079	0.031362	-9.817511	-0.004041	0.000638	-0.003022
22806	13700036	0.016454	0.037522	-9.841549	-0.000526	0.001092	0.000438
22807	13700061	-0.004606	0.034176	-9.823238	-0.003608	-0.000902	-0.001101
22808	13700086	-0.016706	0.048142	-9.811669	-0.005324	0.000548	-0.004171
22809	13700111	-0.051394	0.050421	-9.838337	-0.003700	0.000130	0.000322
22810	13700136	-0.008101	0.042609	-9.814108	-0.005963	-0.003666	-0.004575
22811	13700161	-0.010529	0.040906	-9.799242	-0.006555	-0.000829	-0.001419
22812	13700186	-0.032010	0.046293	-9.802961	-0.001641	0.001380	-0.004877
22813	13700211	-0.031950	0.007119	-9.814459	0.000884	-0.003472	-0.002797
22814	13700236	-0.020325	0.044081	-9.833217	-0.002579	0.000988	-0.002445
22815	13700261	-0.019922	0.031719	-9.797276	-0.005497	0.002362	-0.001591
22816	13700286	-0.012330	0.009189	-9.833729	-0.007206	-0.001109	-0.006607
22817	13700311	-0.031120	0.020586	-9.823572	-0.005531	-0.002936	-0.000210
22818	13700336	-0.037425	0.038904	-9.847033	-0.002688	-0.005795	-0.000685
22819	13700361	-0.067696	0.048557	-9.818124	-0.004026	-0.004010	-0.000857
22820	13700386	-0.030903	0.046162	-9.822618	-0.004767	0.001538	0.001478
22821	13700411	-0.025643	0.034133	-9.808260	0.000080	-0.000262	-0.002204
22822	13700436	-0.008632	0.021940	-9.830403	-0.005543	0.001650	-0.001985
22823	13700461	-0.006727	0.042766	-9.797817	-0.001198	-0.000148	-0.000593
22824	13700486	-0.010253	0.017718	-9.804982	-0.004770	-0.002731	-0.000145
22825	13700511	-0.015048	0.027200	-9.811676	-0.001821	-0.000881	-0.003478
22826	13700536	-0.026901	0.049636	-9.797239	-0.002584	-0.005154	-0.001769
22827	13700561	-0.029340	0.065941	-9.809690	-0.006323	-0.002041	0.000435
22828	13700586	-0.018604	0.046111	-9.811658	-0.000530	-0.000578	0.004281
22829	13700611	-0.014329	0.039816	-9.793943	-0.006086	0.003132	0.003093
22830	13700636	-0.039647	0.048729	-9.805326	-0.007901	0.000621	-0.008325
22831	13700661	-0.003599	0.031819	-9.823238	-0.003463	0.000317	-0.004885
22832	13700686	-0.011702	0.037228	-9.840452	-0.004569	-0.003186	-0.003357
22833	13700711	-0.021548	0.051133	-9.798699	-0.001122	0.001663	-0.000004
22834	13700736	0.011586	0.030541	-9.820437	-0.002670	-0.004436	0.000028
22835	13700761	0.010369	0.030960	-9.845835	-0.005125	0.000618	0.000963
22836	13700786	-0.014308	0.019569	-9.834206	-0.004423	0.000370	-0.004818
22837	13700811	-0.013213	0.042803	-9.833735	-0.003417	-0.000444	0.003201
22838	13700836	-0.012845	0.053142	-9.827024	-0.005269	0.002939	-0.004090
22839	13700861	0.011508	0.034110	-9.804612	-0.002851	-0.000562	0.000110
22840	13700886	-0.034830	0.047335	-9.808695	-0.003277	0.003508	0.004569
22841	13700911	0.016016	0.011336	-9.803188	-0.001897	-0.002886	-0.006764
22842	13700936	-0.029834	0.024082	-9.800571	-0.006890	-0.000310	0.000831
22843	13700961	-0.033021	0.037187	-9.854733	-0.008215	-0.001182	-0.002629
22844	13700986	-0.000220	0.031557	-9.836197	-0.002040	-0.001915	-0.001368
22845	13701011	-0.013388	0.014201	-9.825575	-0.004017	0.000195	0.000896
22846	13701036	-0.018330	-0.003243	-9.832257	-0.009191	-0.000553	-0.003079
22847	13701061	-0.018827	0.039169	-9.843771	-0.012001	-0.003259	-0.006671
22848	13701086	-0.013092	0.032852	-9.832768	-0.008659	-0.001314	-0.002116
22849	13701111	-0.020863	0.045426	-9.827948	-0.001757	-0.001009	-0.005148
22850	13701136	-0.038465	0.039919	-9.818749	-0.007853	0.001608	-0.002548
22851	13701161	-0.005020	0.029855	-9.818917	-0.005537	-0.000544	0.000183
22852	13701186	-0.033587	0.028960	-9.817332	-0.002341	0.001705	0.000255
22853	13701211	-0.028267	0.030497	-9.821188	-0.000373	0.004257	-0.001594
22854	13701236	-0.023360	0.042756	-9.810680	-0.001539	0.000228	-0.002766
22855	13701261	-0.023132	0.028187	-9.811640	-0.009957	-0.000693	-0.002818
22856	13701286	-0.017450	0.033547	-9.820765	-0.005409	0.001328	-0.002107
22857	13701311	-0.024255	0.036608	-9.811622	-0.001891	-0.002746	-0.001375
22858	13701336	-0.010794	0.031148	-9.817446	-0.001413	-0.003639	-0.000738
22859	13701361	0.018962	0.038810	-9.795541	-0.001988	-0.003588	-0.001769
22860	13701386	0.004427	0.051622	-9.837656	-0.006251	0.005768	-0.002602
22861	13701411	-0.016810	0.035802	-9.842819	-0.004521	0.003600	-0.002812
22862	13701436	-0.012620	0.025494	-9.817446	-0.005873	-0.002235	-0.002259
22863	13701461	-0.012510	0.020910	-9.827984	-0.005859	-0.000684	-0.001797
22864	13701486	-0.016860	0.061637	-9.827970	-0.006281	-0.005279	0.001766
22865	13701511	-0.016035	0.037795	-9.819818	-0.001924	0.004815	0.000657
22866	13701536	-0.008682	0.027013	-9.821767	-0.004371	0.004958	-0.004025
22867	13701561	-0.033436	0.049430	-9.820699	-0.003876	-0.004987	-0.004007
22868	13701586	-0.014188	0.030499	-9.806413	-0.003643	-0.002013	-0.003932
22869	13701611	-0.012768	0.008239	-9.838999	-0.004667	-0.002219	-0.003867
22870	13701636	-0.017572	0.008507	-9.829873	-0.005150	-0.000998	-0.002894
22871	13701661	-0.031302	0.042512	-9.830290	-0.004932	0.002757	-0.000560
22872	13701686	-0.017682	0.014093	-9.820765	-0.007124	-0.001089	-0.000584
22873	13701711	-0.035470	0.018966	-9.812528	-0.004597	-0.001690	0.002237
22874	13701736	-0.016176	0.010927	-9.828448	-0.009765	-0.002621	0.001340
22875	13701761	-0.025362	0.020778	-9.829831	-0.007251	-0.000969	-0.000317
22876	13701786	-0.017395	0.033596	-9.827000	-0.004014	-0.000329	-0.002253
22877	13701811	-0.023860	0.050458	-9.821218	0.001355	0.000018	-0.002010
22878	13701836	-0.040975	0.037705	-9.803879	-0.005046	-0.001571	0.002240
22879	13701861	-0.019909	0.047529	-9.840405	-0.000730	-0.000784	-0.000465
22880	13701886	0.002304	0.025057	-9.840995	-0.002889	-0.003277	0.000286
22881	13701911	-0.015166	0.042569	-9.820789	-0.003631	0.000131	0.000955
22882	13701936	-0.023273	0.039967	-9.812110	-0.007838	0.001547	0.001681
22883	13701961	-0.012077	0.065394	-9.824634	-0.002508	0.000928	0.000253
22884	13701986	-0.008063	0.037661	-9.802604	-0.002791	0.001767	0.001413
22885	13702011	-0.009819	0.036026	-9.823203	-0.007057	0.001372	0.004821
22886	13702036	-0.021254	0.016918	-9.792942	-0.003251	-0.004320	-0.002213
22887	13702061	-0.021381	0.044352	-9.818846	-0.003663	0.000711	-0.001608
22888	13702086	-0.015726	0.058487	-9.839476	-0.002800	0.002086	-0.000764
22889	13702111	-0.009609	0.022858	-9.831828	-0.001907	-0.000033	-0.001170
22890	13702136	-0.006494	0.041806	-9.830409	0.001237	0.001828	-0.001550
22891	13702161	-0.006299	0.033094	-9.847665	-0.002736	0.002222	0.002117
22892	13702186	-0.006237	0.058924	-9.827065	-0.005302	0.002307	0.002058
22893	13702211	0.006261	0.040834	-9.816104	-0.001895	-0.000158	0.002231
22894	13702236	-0.016617	0.034788	-9.808313	-0.005718	-0.001200	-0.001031
22895	13702261	-0.006250	0.040069	-9.804052	-0.005230	-0.004490	-0.002977
22896	13702286	-0.014177	0.048376	-9.832293	-0.001511	-0.000353	-0.001360
22897	13702311	0.005289	0.038803	-9.808910	-0.001480	0.003213	0.003597
22898	13702336	-0.008653	0.023271	-9.829914	0.000682	0.002980	-0.003147
22899	13702361	0.006216	0.013154	-9.831429	-0.006028	0.000472	-0.003529
22900	13702386	-0.015069	0.030213	-9.819812	-0.003356	-0.000770	-0.000332
22901	13702411	-0.006128	0.040073	-9.804535	-0.005135	0.002682	-0.004162
22902	13702436	-0.050207	0.052154	-9.792321	-0.006826	0.001620	-0.003128
22903	13702461	0.013673	0.023017	-9.821886	-0.004755	0.000945	-0.001992
22904	13702486	-0.024457	0.013674	-9.801560	-0.001967	-0.000289	-0.001682
22905	13702511	-0.039246	0.016828	-9.803391	-0.003974	0.000642	0.000764
22906	13702536	-0.033261	0.036381	-9.806305	-0.002864	0.001881	-0.003210
22907	13702561	-0.033465	0.061945	-9.834594	0.001799	-0.003517	0.001371
22908	13702586	-0.047717	0.052175	-9.819673	-0.008878	-0.004488	-0.002964
22909	13702611	-0.019099	0.014400	-9.811169	-0.006290	0.004794	-0.005873
22910	13702636	-0.040496	0.044525	-9.814912	-0.002670	-0.001986	0.000298
22911	13702661	-0.018192	0.009125	-9.805900	-0.006530	0.000203	-0.001793
22912	13702686	-0.020706	0.015088	-9.798223	-0.003989	-0.001435	-0.005533
22913	13702711	-0.027419	0.036477	-9.829818	-0.009164	0.000679	-0.001787
22914	13702736	-0.014930	0.024010	-9.816467	-0.005396	0.003204	0.000592
22915	13702761	-0.012133	0.025428	-9.815526	-0.002719	-0.000629	-0.001618
22916	13702786	-0.036939	0.034348	-9.827864	-0.004531	-0.000545	-0.007384
22917	13702811	-0.014252	0.043998	-9.820789	-0.004762	-0.000528	0.001600
22918	13702836	-0.050579	0.052646	-9.826362	-0.002316	-0.005528	-0.001003
22919	13702861	-0.012728	0.044610	-9.829420	-0.004944	0.000881	-0.002375
22920	13702886	-0.013505	0.024733	-9.834212	-0.002807	-0.002119	0.000109
22921	13702911	-0.021002	0.047695	-9.816925	-0.007033	-0.001608	0.001660
22922	13702936	-0.012311	0.040190	-9.817439	-0.006506	-0.000104	0.000769
22923	13702961	-0.004294	0.049866	-9.824669	-0.003178	-0.000113	0.002043
22924	13702986	-0.020770	0.032059	-9.823150	-0.001588	-0.001840	-0.000408
22925	13703011	-0.017842	0.058015	-9.806387	-0.006175	-0.000821	-0.001863
22926	13703036	-0.031269	0.064878	-9.802501	-0.006250	-0.000034	0.003846
22927	13703061	-0.038554	0.076790	-9.813009	-0.004193	-0.002725	-0.002261
22928	13703086	-0.008506	0.054963	-9.849578	-0.004178	-0.003172	-0.000151
22929	13703111	-0.005693	0.046073	-9.826589	-0.002596	-0.002238	0.001583
22930	13703136	-0.001284	0.029654	-9.803116	-0.004391	0.003538	-0.003640
22931	13703161	-0.027580	0.042263	-9.808737	-0.006938	0.001167	-0.000893
22932	13703186	-0.023413	0.026078	-9.836072	-0.003704	0.003867	-0.007103
22933	13703211	-0.037922	0.034852	-9.831690	-0.005378	-0.003453	0.000815
22934	13703236	-0.021595	0.026472	-9.828413	-0.004438	-0.002916	0.002286
22935	13703261	0.004198	0.014317	-9.816557	-0.006062	0.001305	-0.005507
22936	13703286	-0.016634	0.012907	-9.838504	-0.001556	-0.001127	-0.000790
22937	13703311	-0.011830	0.004595	-9.819346	-0.002150	0.001505	-0.003600
22938	13703336	0.001653	-0.007920	-9.825164	-0.007086	-0.002578	-0.000913
22939	13703361	-0.027413	0.025293	-9.819287	-0.003523	-0.003676	-0.000539
22940	13703386	-0.029658	0.031218	-9.836525	-0.001331	0.000046	0.000437
22941	13703411	-0.000183	0.020451	-9.817976	-0.007313	-0.001621	-0.004110
22942	13703436	0.001454	0.010530	-9.819418	-0.007908	0.001678	0.000714
22943	13703461	-0.011231	0.040207	-9.844290	-0.012241	-0.002988	0.002436
22944	13703486	-0.023963	0.025091	-9.828890	-0.008859	-0.001058	-0.002180
22945	13703511	-0.005442	0.015676	-9.793985	-0.001965	0.001706	-0.001933
22946	13703536	-0.010263	0.035270	-9.834229	-0.008062	-0.001886	0.000058
22947	13703561	-0.022458	0.022697	-9.828406	-0.005576	0.002483	-0.003131
22948	13703586	-0.016851	0.033832	-9.839469	-0.004146	-0.000271	-0.002834
22949	13703611	-0.005378	0.031008	-9.837604	0.000913	0.001885	-0.001940
22950	13703636	-0.012446	0.044777	-9.806418	-0.004706	-0.000526	0.000447
22951	13703661	-0.029339	0.032507	-9.822637	-0.007731	-0.000529	-0.003457
22952	13703686	-0.019353	0.041921	-9.839456	-0.007804	0.000055	-0.002493
22953	13703711	-0.027035	0.053280	-9.849489	-0.003120	-0.000183	-0.001740
22954	13703736	-0.021498	0.059842	-9.833692	-0.009181	0.003454	-0.000419
22955	13703761	-0.035036	0.031490	-9.826910	-0.006583	-0.004125	-0.001240
22956	13703786	-0.019594	0.021792	-9.830820	-0.006095	0.002603	-0.003959
22957	13703811	-0.030138	0.063742	-9.820711	-0.005864	0.003578	-0.002420
22958	13703836	-0.030844	0.077471	-9.817831	-0.008599	0.001276	0.001357
22959	13703861	-0.019794	0.032557	-9.822196	-0.004403	0.001991	-0.000571
22960	13703886	0.004675	0.019734	-9.829987	-0.007002	-0.003302	-0.004961
22961	13703911	-0.031188	0.042784	-9.843712	-0.008947	0.003777	-0.004265
22962	13703936	-0.003080	0.031478	-9.829479	-0.003923	-0.000900	0.001462
22963	13703961	0.004208	0.017639	-9.820395	-0.004196	-0.000729	-0.004891
22964	13703986	-0.010325	0.031047	-9.811229	-0.001170	-0.000787	0.002483
22965	13704011	0.003912	0.001159	-9.827095	-0.005946	-0.002834	-0.010087
22966	13704036	0.021697	0.024994	-9.816652	-0.008796	-0.000931	-0.001611
22967	13704061	-0.005286	0.043006	-9.814602	-0.001252	-0.004341	0.001891
22968	13704086	-0.013756	0.032844	-9.804976	-0.004436	-0.003375	-0.002329
22969	13704111	-0.009465	0.049515	-9.834705	-0.007829	-0.000972	-0.000070
22970	13704136	-0.003286	0.042369	-9.823720	-0.008102	-0.000791	-0.002435
22971	13704161	-0.018042	0.034126	-9.800154	-0.003031	-0.000961	-0.002325
22972	13704186	0.005670	0.004727	-9.810811	-0.005101	-0.002618	-0.002840
22973	13704211	-0.008720	0.046083	-9.800201	-0.000842	-0.001903	-0.006884
22974	13704236	-0.011499	0.014228	-9.825110	-0.006795	-0.003676	-0.003481
22975	13704261	-0.012421	0.047808	-9.816001	-0.007719	-0.002654	-0.001743
22976	13704286	-0.004076	0.036171	-9.823720	-0.009097	0.002486	-0.002228
22977	13704311	-0.036112	0.031261	-9.810614	-0.006494	-0.002822	0.000118
22978	13704336	-0.005362	0.013050	-9.805012	-0.006653	0.002272	-0.001529
22979	13704361	-0.002529	0.016420	-9.809333	-0.002639	0.000660	-0.002702
22980	13704386	-0.039468	0.031544	-9.803885	-0.002955	-0.000885	0.002301
22981	13704411	-0.026456	0.037988	-9.841818	-0.003706	-0.002070	-0.001554
22982	13704436	-0.031096	0.054060	-9.809679	-0.000431	-0.000001	-0.000335
22983	13704461	-0.023635	0.038782	-9.826970	-0.006682	0.003308	0.000338
22984	13704486	-0.052104	0.063001	-9.822040	-0.005308	0.000361	-0.001149
22985	13704511	-0.029407	0.034273	-9.814960	-0.006799	-0.001147	-0.000134
22986	13704536	-0.038495	0.038916	-9.816348	-0.006309	-0.002302	0.002293
22987	13704561	-0.021960	0.046576	-9.809244	-0.004913	-0.002223	-0.003289
22988	13704586	-0.028061	0.041369	-9.814006	-0.005497	0.000031	-0.001988
22989	13704611	-0.051215	0.033216	-9.832579	-0.001639	-0.002290	-0.000276
22990	13704636	-0.048021	0.018361	-9.852237	0.001785	0.000347	-0.005153
22991	13704661	-0.025971	0.029758	-9.831280	-0.001103	-0.005385	-0.001521
22992	13704686	-0.016629	0.013282	-9.834188	0.000648	0.000276	0.000751
22993	13704711	-0.020978	0.011361	-9.830820	-0.007066	-0.004970	0.000229
22994	13704736	-0.009273	0.016161	-9.797800	-0.003015	0.000794	0.000700
22995	13704761	-0.020314	0.028681	-9.816438	-0.004572	-0.002469	0.001587
22996	13704786	0.002253	0.012683	-9.805525	-0.007272	0.001222	-0.004093
22997	13704811	-0.005061	0.027336	-9.808368	-0.004189	-0.000517	0.002871
22998	13704836	-0.020192	0.024965	-9.821712	-0.001557	-0.001125	-0.002715
22999	13704861	-0.015500	0.023317	-9.804958	-0.004131	-0.000593	-0.002319
23000	13704886	-0.014055	0.032619	-9.822702	-0.004038	0.000502	-0.003596
23001	13704911	0.015449	0.033018	-9.823334	-0.004004	0.001678	0.000322
23002	13704936	0.011277	0.024124	-9.833855	-0.006862	-0.003618	-0.004448
23003	13704961	0.005876	0.027899	-9.806031	-0.003567	0.002138	0.000004
23004	13704986	-0.005105	0.029787	-9.812683	-0.007167	-0.004001	-0.001366
23005	13705011	-0.002125	0.027126	-9.825158	-0.003155	-0.001086	-0.000463
23006	13705036	0.001017	0.049177	-9.834276	-0.008869	-0.002740	-0.002517
23007	13705061	-0.000276	0.033784	-9.826612	-0.002673	-0.000311	-0.003348
23008	13705086	-0.009411	0.040870	-9.826080	-0.007968	-0.000721	-0.000833
23009	13705111	-0.020617	0.059140	-9.825558	-0.001946	-0.000943	-0.001940
23010	13705136	-0.024256	0.051700	-9.834641	-0.006250	0.001369	-0.003579
23011	13705161	-0.003272	0.053553	-9.847689	-0.003554	-0.003110	-0.006436
23012	13705186	-0.048404	0.069104	-9.814870	-0.003585	-0.001873	-0.004183
23013	13705211	-0.019174	0.066372	-9.832269	-0.001051	0.003207	-0.002116
23014	13705236	-0.022909	0.054920	-9.826504	-0.008030	0.001346	-0.001074
23015	13705261	-0.022425	0.051612	-9.827946	-0.005832	-0.003466	-0.001237
23016	13705286	-0.039179	0.046685	-9.801018	-0.003280	0.000717	-0.002947
23017	13705311	-0.034530	0.024120	-9.809655	-0.003347	-0.001492	-0.007135
23018	13705336	-0.041081	0.046578	-9.794289	-0.003541	0.001171	0.000387
23019	13705361	-0.048155	0.049211	-9.816784	-0.004432	0.000960	-0.000185
23020	13705386	-0.033486	0.055248	-9.826450	-0.006805	-0.005095	0.000682
23021	13705411	-0.006984	0.023975	-9.804047	-0.009802	-0.004059	-0.006233
23022	13705436	-0.021248	0.028389	-9.829383	-0.005078	-0.007463	-0.002801
23023	13705461	-0.008335	0.022552	-9.811699	-0.000617	-0.000590	-0.001751
23024	13705486	-0.008046	0.002352	-9.821283	-0.004287	-0.003627	0.000808
23025	13705511	-0.014663	0.006515	-9.824610	-0.001201	0.002180	0.000575
23026	13705536	-0.001582	0.008617	-9.790641	-0.005782	0.000866	-0.002952
23027	13705561	0.002430	-0.002432	-9.806955	-0.007775	0.000890	-0.003007
23028	13705586	0.006458	0.013504	-9.794044	-0.006230	-0.003275	-0.003101
23029	13705611	-0.010663	0.025452	-9.818882	-0.000274	0.000760	-0.005016
23030	13705636	-0.004599	0.033146	-9.817475	-0.002682	-0.001851	-0.000668
23031	13705661	-0.034416	0.050332	-9.814464	-0.006883	-0.004645	-0.000405
23032	13705686	-0.001649	0.024155	-9.815097	-0.006439	-0.000168	0.003399
23033	13705711	-0.017838	0.017706	-9.811181	-0.000852	-0.002855	-0.000039
23034	13705736	-0.005377	0.055712	-9.830420	-0.007759	-0.005573	-0.002719
23035	13705761	-0.009875	0.058765	-9.790133	-0.005874	-0.001904	0.002745
23036	13705786	-0.009252	0.056754	-9.814101	-0.001866	-0.003459	-0.001958
23037	13705811	-0.012028	0.052223	-9.827989	-0.004514	-0.008735	0.001040
23038	13705836	-0.022507	0.066412	-9.830337	-0.009017	0.001965	-0.005117
23039	13705861	0.010336	0.058037	-9.821397	-0.002925	0.000018	0.000183
23040	13705886	0.007052	0.033834	-9.852529	-0.004946	0.000548	-0.005138
23041	13705911	-0.039700	0.062883	-9.832172	-0.006291	-0.003271	-0.000335
23042	13705936	-0.017641	0.043835	-9.812146	-0.006147	-0.001399	0.001468
23043	13705961	-0.003204	0.043385	-9.833783	-0.004798	-0.000095	-0.004624
23044	13705986	-0.009228	0.035289	-9.838539	-0.001080	0.003849	-0.006342
23045	13706011	-0.007692	0.052068	-9.814112	-0.005949	0.000149	-0.002633
23046	13706036	-0.034151	0.037312	-9.833639	-0.004117	-0.005242	-0.001124
23047	13706061	0.014033	0.034501	-9.827643	-0.005172	0.002041	-0.001852
23048	13706086	0.010076	0.032643	-9.801250	-0.006232	-0.001086	-0.003411
23049	13706111	-0.010186	0.022489	-9.806424	-0.005835	0.004409	-0.007288
23050	13706136	-0.021629	0.025990	-9.826511	-0.007120	-0.000900	0.001669
23051	13706161	-0.020977	0.040718	-9.800619	-0.001311	0.001396	-0.002508
23052	13706186	-0.015472	0.012886	-9.801608	-0.007290	-0.004075	-0.001879
23053	13706211	-0.020397	0.005368	-9.838968	-0.007428	-0.008017	-0.001903
23054	13706236	-0.015583	0.003320	-9.826035	-0.007017	0.001621	0.000140
23055	13706261	0.005106	0.018575	-9.817529	-0.003500	-0.000584	-0.003545
23056	13706286	0.003748	0.015385	-9.828544	-0.003679	-0.002971	-0.002719
23057	13706311	-0.017293	0.009635	-9.808784	-0.006196	-0.004181	-0.000729
23058	13706336	-0.024343	0.011081	-9.813529	-0.008750	-0.000282	0.000063
23059	13706361	-0.021897	0.045372	-9.826016	-0.002727	-0.003034	-0.006305
23060	13706386	-0.014647	-0.001524	-9.817898	-0.008103	-0.000593	-0.001797
23061	13706411	-0.014427	0.019842	-9.821743	-0.005594	-0.003271	-0.004382
23062	13706436	-0.021163	0.027790	-9.820742	-0.005440	0.000356	-0.000836
23063	13706461	-0.010203	0.028941	-9.827990	-0.001107	-0.001387	-0.005797
23064	13706486	-0.029402	0.043620	-9.835564	-0.007318	-0.003360	-0.002711
23065	13706511	-0.030959	0.036374	-9.799611	-0.008167	-0.000271	0.000264
23066	13706536	-0.016481	0.028210	-9.812140	-0.001892	-0.000484	-0.000782
23067	13706561	0.008429	0.025364	-9.825212	-0.004959	0.001471	0.002180
23068	13706586	-0.015417	0.024210	-9.828938	-0.006962	-0.003999	0.000429
23069	13706611	-0.017931	0.039737	-9.823161	-0.004335	0.003597	-0.005822
23070	13706636	-0.026677	0.047105	-9.811614	-0.009432	0.003459	0.001696
23071	13706661	-0.012744	0.048081	-9.839493	-0.003316	0.001481	-0.006537
23072	13706686	-0.002474	0.021063	-9.830433	-0.005297	-0.000024	0.000638
23073	13706711	-0.007152	0.046944	-9.819878	-0.005300	-0.002164	-0.002581
23074	13706736	-0.014562	0.032069	-9.818381	-0.002278	0.001442	-0.003275
23075	13706761	-0.018195	0.052497	-9.820771	-0.004014	-0.001878	0.001846
23076	13706786	-0.015208	0.044416	-9.816944	-0.006752	0.001368	-0.001656
23077	13706811	-0.003038	0.050407	-9.796882	-0.003850	-0.001359	-0.001618
23078	13706836	-0.008833	0.063379	-9.808360	-0.008062	-0.001889	-0.003728
23079	13706861	-0.004393	0.054197	-9.825150	-0.007692	-0.004086	-0.006495
23080	13706886	-0.008441	0.045239	-9.836161	-0.003844	0.000449	-0.000067
23081	13706911	-0.006466	0.033776	-9.826583	-0.008157	0.001015	-0.003900
23082	13706936	-0.006719	0.039060	-9.804535	-0.001769	-0.004886	-0.005166
23083	13706961	-0.018454	0.049936	-9.776669	-0.004852	-0.003701	0.001900
23084	13706986	-0.031332	0.040012	-9.822142	-0.003408	-0.001359	-0.005144
23085	13707011	-0.006532	0.020956	-9.797335	-0.002871	-0.003855	0.002280
23086	13707036	-0.030981	0.044019	-9.804880	-0.002736	0.001757	-0.003143
23087	13707061	-0.025096	0.030387	-9.805876	-0.006340	0.002341	-0.003447
23088	13707086	-0.015017	0.022954	-9.812635	-0.003436	-0.004724	-0.005484
23089	13707111	-0.018737	0.025042	-9.826988	-0.002028	0.001574	-0.003399
23090	13707136	-0.006692	0.023582	-9.842396	-0.005201	0.000811	-0.002053
23091	13707161	-0.024379	0.018799	-9.828883	-0.001189	-0.002205	0.003441
23092	13707186	-0.029020	0.046310	-9.827906	-0.004971	-0.002347	-0.000659
23093	13707211	-0.014514	0.020583	-9.811682	-0.003695	-0.002192	0.000560
23094	13707236	-0.022043	0.029563	-9.843749	-0.005537	-0.000551	-0.000580
23095	13707261	-0.011592	0.014546	-9.812653	-0.008616	-0.005069	-0.005536
23096	13707286	-0.031085	0.024434	-9.828835	-0.003721	0.000909	0.000063
23097	13707311	-0.023738	0.049815	-9.838474	-0.001355	-0.001325	-0.002973
23098	13707336	-0.013719	0.039653	-9.817433	-0.000881	-0.000151	-0.003608
23099	13707361	0.003086	0.028184	-9.825188	-0.005209	-0.000797	0.000060
23100	13707386	-0.037340	0.066567	-9.821640	-0.009002	0.001781	-0.000948
23101	13707411	0.015264	0.041340	-9.809905	-0.003819	-0.000270	-0.003475
23102	13707436	-0.035691	0.047574	-9.823549	-0.002597	0.001241	-0.004809
23103	13707461	-0.014186	0.033002	-9.815997	-0.004828	-0.004859	0.000998
23104	13707486	-0.019216	0.054332	-9.815501	-0.004718	-0.005820	0.005801
23105	13707511	-0.006793	0.026812	-9.837598	-0.008090	-0.000654	0.001158
23106	13707536	0.012960	0.038490	-9.813732	-0.002331	-0.000882	-0.002584
23107	13707561	-0.025507	0.010581	-9.784293	-0.004177	-0.001295	-0.000268
23108	13707586	0.005894	0.024609	-9.808904	-0.002831	-0.002950	0.002860
23109	13707611	0.011699	0.025781	-9.815163	-0.006637	0.001889	0.000969
23110	13707636	-0.004231	0.027150	-9.793514	-0.006583	-0.000449	-0.005065
23111	13707661	-0.052987	0.058138	-9.812922	-0.004134	0.003739	-0.002483
23112	13707686	-0.004724	0.037853	-9.814125	-0.004770	-0.004742	-0.001441
23113	13707711	-0.018457	0.046269	-9.845214	-0.009605	-0.003988	-0.004436
23114	13707736	-0.017860	0.044809	-9.845692	-0.005040	0.001846	-0.003524
23115	13707761	-0.018955	0.044163	-9.833233	-0.007357	-0.001742	0.000829
23116	13707786	0.002229	0.026825	-9.830922	-0.004953	-0.002930	-0.000858
23117	13707811	-0.001842	0.032113	-9.802161	-0.010854	-0.000712	-0.002365
23118	13707836	0.000247	0.017346	-9.797371	-0.011709	-0.001822	0.000513
23119	13707861	-0.001119	0.018786	-9.807909	-0.003843	0.000787	0.003779
23120	13707886	-0.004710	0.030486	-9.800220	-0.001855	-0.001256	0.002740
23121	13707911	-0.022651	0.032116	-9.825534	-0.003922	-0.002976	0.000618
23122	13707936	-0.011165	0.034733	-9.833264	-0.003944	0.001411	-0.005066
23123	13707961	-0.004001	0.025694	-9.825635	-0.004321	-0.000326	0.001921
23124	13707986	0.016983	0.021207	-9.819031	-0.011867	0.000820	-0.003381
23125	13708011	0.003206	0.026960	-9.835255	-0.009984	0.000215	-0.001338
23126	13708036	-0.028361	0.014504	-9.795785	-0.005923	-0.002952	-0.003159
23127	13708061	-0.007276	0.019569	-9.825611	-0.011189	-0.004533	-0.004244
23128	13708086	-0.014353	0.043300	-9.805929	-0.003549	-0.002903	-0.000921
23129	13708111	-0.026843	0.033179	-9.831743	-0.009590	0.004490	0.002149
23130	13708136	-0.007840	0.017357	-9.810268	-0.005832	-0.001791	-0.002703
23131	13708161	-0.009041	0.046543	-9.828007	-0.004295	-0.005761	-0.001514
23132	13708186	-0.010281	0.030713	-9.818888	-0.003614	-0.000907	-0.003608
23133	13708211	-0.001450	0.017376	-9.835225	-0.006580	-0.002250	-0.002578
23134	13708236	-0.015076	0.033396	-9.813589	-0.002404	0.001839	0.001794
23135	13708261	-0.004603	0.026253	-9.804052	0.000359	-0.001030	-0.004645
23136	13708286	-0.027002	0.023646	-9.804428	-0.003931	-0.004910	0.001508
23137	13708311	-0.032741	0.036578	-9.818292	-0.001897	-0.000226	-0.001103
23138	13708336	-0.051895	0.050307	-9.829712	-0.005859	0.001116	-0.004669
23139	13708361	-0.038510	0.032502	-9.802448	-0.005604	-0.000684	-0.002633
23140	13708386	-0.016569	0.037713	-9.813112	-0.006346	0.002730	-0.000627
23141	13708411	-0.032733	0.036642	-9.823095	0.001821	-0.002357	-0.000422
23142	13708436	-0.034877	0.058629	-9.831243	-0.004213	-0.004211	-0.002655
23143	13708461	-0.006599	0.040808	-9.825146	-0.003523	-0.001743	-0.001490
23144	13708486	-0.009245	0.022239	-9.819365	-0.006104	-0.003146	-0.001685
23145	13708511	-0.033014	0.051057	-9.797685	-0.008276	0.001280	-0.000504
23146	13708536	-0.019533	0.015598	-9.824586	-0.008725	0.005540	0.002410
23147	13708561	0.012624	0.028364	-9.830988	-0.004029	-0.004147	-0.002405
23148	13708586	-0.003468	0.053014	-9.814131	-0.002748	-0.004062	-0.002851
23149	13708611	-0.029929	0.045983	-9.834610	-0.007932	-0.003953	-0.000721
23150	13708636	-0.001514	0.022616	-9.840023	-0.005914	-0.005341	-0.003429
23151	13708661	0.006356	0.021254	-9.803629	-0.006260	-0.004514	-0.004454
23152	13708686	0.000886	0.007489	-9.804076	-0.010815	-0.001539	0.003141
23153	13708711	-0.008707	0.015539	-9.814585	-0.008257	-0.001894	-0.001802
23154	13708736	-0.006377	0.038463	-9.855342	-0.004841	-0.002871	-0.004509
23155	13708761	0.011335	0.021141	-9.825235	-0.005297	0.001645	-0.003907
23156	13708786	0.015568	0.021674	-9.824287	-0.007828	-0.001229	0.000057
23157	13708811	0.001960	0.009801	-9.831405	-0.008103	-0.000529	-0.000711
23158	13708836	0.003977	-0.006175	-9.816545	-0.004871	-0.001173	0.002557
23159	13708861	-0.004916	0.018449	-9.814590	-0.006390	-0.001654	0.003837
23160	13708886	-0.025826	0.016861	-9.824085	-0.006524	-0.001666	0.000574
23161	13708911	-0.012078	0.029394	-9.830379	0.000586	-0.000064	-0.005212
23162	13708936	-0.029899	0.040571	-9.827423	-0.003806	-0.000772	-0.000712
23163	13708961	-0.031266	0.029935	-9.811115	-0.009806	0.000601	-0.001204
23164	13708986	-0.018383	0.025270	-9.808302	-0.004740	-0.001241	0.002937
23165	13709011	-0.047849	0.032740	-9.825409	-0.003855	0.001040	0.000256
23166	13709036	-0.035680	0.038414	-9.816360	0.000058	-0.005618	-0.002165
23167	13709061	-0.030202	0.026591	-9.814465	-0.001276	0.002168	-0.003915
23168	13709086	-0.037224	0.050866	-9.824026	-0.003409	-0.001684	-0.006297
23169	13709111	-0.002339	-0.003137	-9.801167	-0.002131	-0.001337	-0.005345
23170	13709136	-0.037217	0.020604	-9.829771	-0.005777	-0.001195	-0.000906
23171	13709161	-0.020146	0.025598	-9.832746	-0.004517	-0.000469	-0.000709
23172	13709186	-0.037666	0.051447	-9.827386	-0.006409	-0.003932	-0.005595
23173	13709211	-0.024742	0.042834	-9.811632	-0.008848	0.000744	-0.003393
23174	13709236	-0.029810	0.048432	-9.841799	-0.006695	0.005761	-0.001955
23175	13709261	-0.006674	0.040146	-9.808843	-0.007610	-0.001882	-0.001033
23176	13709286	-0.012273	0.045103	-9.827990	-0.005093	0.001661	0.000840
23177	13709311	-0.011349	0.046157	-9.836626	-0.003128	-0.004125	-0.001378
23178	13709336	0.000270	0.031242	-9.841955	-0.006653	-0.004056	-0.000407
23179	13709361	-0.014961	0.021591	-9.816474	-0.002041	-0.002174	-0.004575
23180	13709386	0.004235	0.017135	-9.819430	-0.001639	0.001594	0.000310
23181	13709411	0.012725	0.027958	-9.838163	-0.000612	0.001216	-0.003858
23182	13709436	0.028016	0.022501	-9.839201	-0.001952	-0.003076	-0.004396
23183	13709461	-0.018746	0.029429	-9.831786	-0.005199	0.000483	-0.005193
23184	13709486	-0.019568	0.035993	-9.794879	-0.006950	-0.002180	0.003903
23185	13709511	-0.013212	0.026532	-9.794426	-0.006644	0.001818	-0.002301
23186	13709536	-0.019779	0.029682	-9.816444	-0.008918	0.003538	0.002208
23187	13709561	-0.009333	0.035282	-9.833282	-0.008097	-0.004798	-0.000729
23188	13709586	-0.026190	0.031213	-9.797728	-0.007230	-0.004137	-0.002776
23189	13709611	-0.000397	0.017015	-9.843863	-0.005235	0.003976	-0.000882
23190	13709636	-0.031846	0.013164	-9.835541	-0.003783	0.002448	-0.003839
23191	13709661	-0.013878	0.025838	-9.843313	-0.004573	-0.001051	-0.002259
23192	13709686	-0.022434	0.014415	-9.819782	0.000854	-0.000438	-0.003871
23193	13709711	-0.027929	0.039036	-9.823585	0.000913	0.004219	-0.001280
23194	13709736	-0.028226	0.045440	-9.805387	-0.000612	-0.004271	0.002976
23195	13709761	-0.013321	0.033339	-9.803534	-0.004956	-0.004609	0.001639
23196	13709786	-0.017761	0.068437	-9.839945	-0.006244	-0.000432	-0.000389
23197	13709811	-0.033596	0.026524	-9.811097	-0.003386	0.002332	-0.001532
23198	13709836	-0.005655	0.037823	-9.811717	-0.005026	-0.003070	-0.005412
23199	13709861	-0.035342	0.058600	-9.827874	-0.006902	-0.000326	-0.004679
23200	13709886	-0.017540	0.045052	-9.827958	-0.007640	0.000562	-0.005892
23201	13709911	-0.013597	0.030193	-9.819353	-0.002570	0.000200	-0.006483
23202	13709936	-0.005758	0.040942	-9.801656	-0.000942	-0.000024	-0.000657
23203	13709961	-0.036417	0.060724	-9.817319	-0.002885	-0.003813	-0.004707
23204	13709986	-0.028271	0.054545	-9.809696	-0.002213	-0.002438	-0.002012
23205	13710011	-0.024369	0.060143	-9.828412	-0.006153	0.003062	0.000466
23206	13710036	-0.027516	0.043980	-9.830314	-0.005235	0.000361	0.002246
23207	13710061	0.005818	0.013357	-9.846759	-0.006518	0.000012	-0.000770
23208	13710086	-0.000217	0.023747	-9.817987	-0.007074	-0.002773	-0.001107
23209	13710111	0.005575	0.013755	-9.812254	-0.002845	-0.002828	-0.000672
23210	13710136	-0.010923	0.026036	-9.791571	-0.006121	-0.004044	0.004660
23211	13710161	-0.004831	0.015236	-9.823215	-0.004160	-0.001825	-0.002068
23212	13710186	-0.007945	0.022852	-9.796852	-0.006308	0.001237	-0.002749
23213	13710211	-0.017560	0.025923	-9.788651	-0.005636	0.000480	-0.001472
23214	13710236	-0.026996	0.026959	-9.801072	-0.005561	0.000426	0.002563
23215	13710261	-0.031757	0.038081	-9.819269	-0.006554	0.001237	-0.001980
23216	13710286	-0.010018	0.013138	-9.815526	-0.004672	0.004432	-0.002931
23217	13710311	0.018737	0.010193	-9.848738	-0.004363	-0.001574	-0.004703
23218	13710336	-0.000987	0.012505	-9.828508	-0.004607	-0.003770	-0.001694
23219	13710361	-0.017226	0.020894	-9.834194	-0.003256	-0.001933	-0.000145
23220	13710386	-0.019204	0.054542	-9.805900	-0.000875	0.001979	-0.001547
23221	13710411	-0.032894	0.038129	-9.792889	-0.004382	0.002000	0.004818
23222	13710436	-0.022500	0.041159	-9.798217	-0.002028	-0.002633	-0.003614
23223	13710461	-0.032674	0.034867	-9.828365	-0.003098	-0.002836	-0.001240
23224	13710486	-0.005506	0.037561	-9.826589	-0.004549	0.002497	-0.000766
23225	13710511	-0.014758	0.013244	-9.823174	-0.008954	0.002430	0.000854
23226	13710536	0.001825	0.021616	-9.832848	-0.004262	0.001734	-0.000575
23227	13710561	-0.011785	0.038452	-9.824634	-0.007568	0.000700	-0.002554
23228	13710586	-0.025760	0.036916	-9.801555	-0.003769	-0.005811	0.002913
23229	13710611	-0.037157	0.039774	-9.806292	-0.008965	-0.001189	0.002824
23230	13710636	-0.028766	0.056428	-9.805380	-0.008045	-0.000276	-0.002880
23231	13710661	-0.019537	0.021821	-9.770423	-0.004396	-0.000411	-0.002378
23232	13710686	0.006755	0.042052	-9.828084	-0.007333	-0.004528	0.000037
23233	13710711	-0.027147	0.059284	-9.835588	-0.006339	0.004730	-0.001383
23234	13710736	-0.016787	0.054004	-9.821735	-0.009087	-0.001779	-0.001281
23235	13710761	-0.021705	0.039475	-9.836082	-0.007974	0.001338	-0.003001
23236	13710786	-0.037101	0.038753	-9.809649	-0.001377	-0.002542	-0.000602
23237	13710811	-0.035174	0.063325	-9.801519	-0.000030	-0.006858	-0.000820
23238	13710836	0.003175	0.060777	-9.820402	-0.003800	-0.000583	0.001144
23239	13710861	0.001583	0.039086	-9.825653	-0.004269	-0.000337	-0.003155
23240	13710886	0.020328	0.021251	-9.822398	-0.007857	0.000118	0.001864
23241	13710911	0.010050	0.010153	-9.822816	-0.003991	0.002693	-0.006667
23242	13710936	0.008709	0.014321	-9.846306	-0.006221	0.002925	-0.001077
23243	13710961	0.010411	0.023201	-9.840083	-0.000615	-0.000335	0.000685
23244	13710986	-0.003070	0.021235	-9.811735	-0.005274	-0.000018	0.006606
23245	13711011	-0.008856	0.025507	-9.816980	-0.004447	-0.002864	-0.000857
23246	13711036	-0.006299	0.021479	-9.830886	-0.004987	0.000033	-0.000837
23247	13711061	-0.015164	0.032217	-9.800159	0.003845	0.000708	0.000237
23248	13711086	-0.012604	0.019247	-9.815520	-0.001226	-0.003776	-0.003436
23249	13711111	0.003661	0.018587	-9.817511	-0.009310	-0.000681	-0.001280
23250	13711136	-0.032374	0.039295	-9.808713	-0.003558	-0.002520	-0.001495
23251	13711161	-0.026371	0.026484	-9.829831	-0.005163	-0.002487	-0.002907
23252	13711186	-0.024036	0.033127	-9.832727	-0.003350	-0.001103	-0.003415
23253	13711211	-0.001106	0.016044	-9.811264	-0.004296	-0.001831	-0.004831
23254	13711236	0.001371	0.020085	-9.830451	-0.001368	-0.000942	-0.003740
23255	13711261	-0.030801	0.031693	-9.806317	-0.002253	0.003260	0.000072
23256	13711286	0.013261	0.012405	-9.809899	-0.003944	0.001669	-0.002885
23257	13711311	-0.011647	0.013437	-9.804499	-0.006633	-0.004390	-0.000152
23258	13711336	-0.022046	0.026971	-9.828890	-0.005329	-0.001130	-0.001228
23259	13711361	-0.022700	0.034454	-9.825063	-0.003022	-0.001547	-0.002900
23260	13711386	-0.028905	0.036236	-9.820234	-0.006184	-0.000571	-0.003532
23261	13711411	-0.038009	0.040506	-9.832180	-0.001185	-0.004816	-0.003116
23262	13711436	-0.046869	0.056229	-9.806726	-0.006765	-0.000522	-0.006032
23263	13711461	-0.034520	0.060368	-9.822612	-0.002910	-0.004508	0.001316
23264	13711486	-0.037397	0.044195	-9.849912	-0.005710	-0.001006	0.002299
23265	13711511	-0.021080	0.035390	-9.848552	-0.010984	0.002010	0.003807
23266	13711536	-0.067887	0.073330	-9.832507	-0.001144	0.000365	-0.000967
23267	13711561	-0.040719	0.063054	-9.815866	-0.003089	-0.000839	-0.000523
23268	13711586	-0.031199	0.071473	-9.828858	-0.009505	0.001378	-0.001712
23269	13711611	-0.018964	0.049769	-9.831792	-0.000212	0.001286	-0.000583
23270	13711636	-0.016930	0.033143	-9.828925	-0.002310	-0.001535	-0.001751
23271	13711661	-0.016048	0.034980	-9.824615	-0.002356	-0.001587	0.003512
23272	13711686	0.003719	0.024936	-9.831429	-0.003782	0.000709	0.001597
23273	13711711	-0.009732	0.016853	-9.809298	-0.004008	-0.001878	0.003894
23274	13711736	-0.016683	0.049830	-9.828453	-0.009228	-0.003596	-0.003989
23275	13711761	0.019131	0.036712	-9.813762	-0.003713	-0.001554	-0.000080
23276	13711786	-0.018883	0.037376	-9.825558	-0.005022	-0.000741	-0.002769
23277	13711811	-0.017697	0.040445	-9.805434	-0.005987	-0.004627	0.000295
23278	13711836	-0.003917	0.030606	-9.770989	-0.009243	-0.002749	0.001658
23279	13711861	-0.003655	0.029214	-9.805977	-0.004199	0.001402	-0.002819
23280	13711886	-0.031118	0.054462	-9.806329	-0.003943	0.001998	0.000325
23281	13711911	-0.021182	0.027668	-9.815478	-0.000711	0.001022	0.003266
23282	13711936	0.011690	0.023331	-9.816593	0.000162	-0.000909	-0.002471
23283	13711961	-0.002345	-0.004430	-9.805012	-0.009684	-0.003019	-0.000009
23284	13711986	-0.006372	0.023598	-9.811234	-0.008787	0.003138	0.001431
23285	13712011	-0.011921	0.054703	-9.828465	-0.013739	-0.000249	-0.001076
23286	13712036	-0.024457	0.055250	-9.817867	-0.007161	-0.002001	-0.000198
23287	13712061	-0.021606	0.024070	-9.823620	-0.006121	-0.000438	-0.000261
23288	13712086	-0.024328	0.046549	-9.809232	-0.005738	0.001569	-0.002684
23289	13712111	-0.035404	0.049721	-9.809177	-0.004841	-0.002612	-0.003280
23290	13712136	-0.030152	0.031952	-9.850895	-0.003096	-0.003293	-0.004837
23291	13712161	-0.011677	0.031301	-9.827030	-0.001094	-0.001250	0.002351
23292	13712186	-0.025471	0.049146	-9.853320	-0.008050	0.006449	0.001967
23293	13712211	-0.027555	0.050281	-9.835111	-0.008442	0.000037	-0.003012
23294	13712236	-0.039588	0.056116	-9.826891	-0.007184	0.001031	0.000654
23295	13712261	-0.040745	0.028183	-9.829771	-0.007835	-0.002655	0.000766
23296	13712286	-0.035578	0.032792	-9.815412	-0.008886	-0.002168	-0.003789
23297	13712311	-0.036769	0.051664	-9.810124	-0.006746	-0.000699	0.001790
23298	13712336	-0.024253	0.054777	-9.849977	-0.004876	-0.003842	-0.003934
23299	13712361	-0.035686	0.049988	-9.827870	-0.002325	0.001183	-0.000964
23300	13712386	-0.012975	0.051018	-9.811209	-0.008364	0.000046	0.001678
23301	13712411	-0.027002	0.066944	-9.810190	-0.005168	-0.001773	0.001402
23302	13712436	-0.024782	0.038723	-9.795338	-0.003830	0.000055	-0.002126
23303	13712461	-0.018946	0.063608	-9.803050	-0.004545	-0.004032	-0.003745
23304	13712486	-0.015265	0.044903	-9.814076	-0.008884	-0.000229	-0.002943
23305	13712511	-0.013747	0.041562	-9.816957	-0.004837	-0.000547	-0.003667
23306	13712536	-0.009720	0.025116	-9.822726	-0.004062	-0.000921	-0.003026
23307	13712561	-0.007564	0.044076	-9.815542	-0.010152	0.003891	-0.001380
23308	13712586	-0.024188	0.041104	-9.825063	-0.003903	0.000249	-0.002116
23309	13712611	-0.004489	0.036382	-9.840488	-0.006998	0.000705	-0.005573
23310	13712636	0.016196	0.016703	-9.840101	-0.003956	-0.002339	-0.003295
23311	13712661	-0.004320	0.043343	-9.805017	-0.000441	0.000308	-0.001940
23312	13712686	-0.007496	0.035880	-9.814590	-0.001130	0.001784	-0.001866
23313	13712711	-0.010642	0.056267	-9.813624	-0.003885	-0.002067	0.002353
23314	13712736	-0.020729	0.033981	-9.821719	-0.004156	0.002247	-0.002560
23315	13712761	-0.018382	0.026677	-9.805429	-0.007957	0.002952	-0.004147
23316	13712786	-0.026012	0.032348	-9.812093	-0.005154	0.001451	-0.003846
23317	13712811	-0.037834	0.024214	-9.817308	-0.004469	0.000115	-0.000770
23318	13712836	-0.049911	0.044668	-9.828751	-0.007078	-0.000648	-0.003275
23319	13712861	-0.034802	0.043082	-9.805827	-0.006822	-0.001110	-0.009948
23320	13712886	-0.023985	0.057468	-9.807317	-0.007148	0.002404	0.004762
23321	13712911	-0.021329	0.033292	-9.808767	-0.005728	0.001115	-0.003518
23322	13712936	-0.021727	0.030014	-9.813076	-0.002317	0.000925	-0.001414
23323	13712961	-0.051618	0.057146	-9.811979	-0.003292	-0.000972	-0.004692
23324	13712986	-0.014740	0.036634	-9.805441	-0.003913	-0.003372	-0.001436
23325	13713011	-0.002474	0.049117	-9.804070	-0.004265	0.001927	0.001225
23326	13713036	-0.008364	0.033686	-9.826088	-0.002550	-0.000055	-0.003476
23327	13713061	-0.023583	0.026735	-9.816903	-0.003716	-0.001360	0.000434
23328	13713086	-0.007595	0.037183	-9.808355	0.000651	-0.001736	-0.001439
23329	13713111	-0.028477	0.043975	-9.830785	-0.002851	-0.000635	-0.001164
23330	13713136	-0.018849	0.023343	-9.810215	-0.001521	-0.004435	-0.004397
23331	13713161	-0.030049	0.023784	-9.843707	-0.005898	-0.003465	-0.001752
23332	13713186	0.000533	0.008671	-9.825647	-0.004542	0.000109	-0.003020
23333	13713211	-0.027190	0.049568	-9.822159	-0.007573	-0.003104	-0.000012
23334	13713236	-0.016367	0.028973	-9.828436	-0.007479	0.002192	-0.001843
23335	13713261	-0.013195	0.031993	-9.813118	-0.000353	-0.000197	0.002681
23336	13713286	-0.015863	0.012012	-9.809744	-0.001545	-0.003718	-0.004396
23337	13713311	-0.025604	0.040653	-9.826003	-0.009096	-0.001131	0.001988
23338	13713336	-0.024505	0.037150	-9.843742	-0.007443	0.000900	-0.001399
23339	13713361	0.002499	0.004522	-9.831882	-0.005746	-0.002368	-0.002454
23340	13713386	-0.050619	0.048468	-9.802395	-0.005512	0.000608	-0.001533
23341	13713411	-0.011955	0.051733	-9.828472	-0.001772	-0.002106	-0.000280
23342	13713436	-0.014254	0.041536	-9.812159	-0.005496	-0.002037	-0.002582
23343	13713461	-0.017941	0.050516	-9.848571	-0.002232	0.000483	0.003132
23344	13713486	-0.006494	0.035094	-9.819871	-0.007471	0.001600	-0.005312
23345	13713511	-0.022340	0.038602	-9.814996	-0.004941	-0.001450	-0.002000
23346	13713536	-0.034803	0.056862	-9.839384	-0.005308	-0.001909	-0.002323
23347	13713561	-0.007988	0.031581	-9.805960	-0.008616	-0.000279	0.002053
23348	13713586	-0.030872	0.048182	-9.829330	-0.003548	0.001557	0.002439
23349	13713611	-0.033747	0.044880	-9.829800	-0.006683	-0.000440	0.001544
23350	13713636	-0.014714	0.045071	-9.827977	-0.005011	-0.001128	-0.000198
23351	13713661	-0.033013	0.030821	-9.839869	-0.007716	-0.000398	0.000709
23352	13713686	-0.038462	0.039067	-9.828812	-0.005654	-0.000945	-0.000255
23353	13713711	-0.053055	0.049195	-9.792793	-0.000627	0.000453	0.002362
23354	13713736	0.004231	0.008979	-9.811753	-0.001788	0.000225	-0.001165
23355	13713761	0.003495	0.034222	-9.819913	-0.001322	-0.000153	0.001588
23356	13713786	-0.011811	0.042210	-9.825116	-0.005016	-0.001068	-0.004499
23357	13713811	-0.020228	0.059949	-9.816450	-0.002623	-0.001405	0.000562
23358	13713836	-0.025517	0.028646	-9.819299	-0.004140	-0.001949	0.002293
23359	13713861	-0.018680	0.027170	-9.839940	-0.005205	-0.001198	-0.003666
23360	13713886	-0.012200	0.025937	-9.818882	-0.002329	-0.005285	-0.003505
23361	13713911	-0.041208	0.024698	-9.820169	-0.005987	-0.002559	-0.000200
23362	13713936	-0.020836	0.024540	-9.792953	-0.006606	-0.001617	-0.006679
23363	13713961	-0.026923	0.029075	-9.815920	-0.006075	0.002214	-0.003190
23364	13713986	-0.036686	0.035499	-9.786153	0.000787	0.004148	-0.000066
23365	13714011	-0.018455	0.033559	-9.824598	-0.001021	-0.006096	-0.002743
23366	13714036	0.002607	0.024453	-9.805525	-0.001363	0.001070	-0.001103
23367	13714061	-0.023045	0.017520	-9.803963	-0.001054	-0.000800	-0.003548
23368	13714086	-0.023712	0.039534	-9.814507	-0.005761	0.002411	-0.003578
23369	13714111	-0.016358	0.028541	-9.832758	-0.007141	-0.000587	-0.002120
23370	13714136	-0.013992	0.010314	-9.789628	-0.006424	0.001112	-0.001727
23371	13714161	-0.004911	0.056335	-9.814125	-0.003284	0.000770	-0.004429
23372	13714186	-0.009292	0.025456	-9.815055	-0.004344	0.000243	-0.000900
23373	13714211	0.022133	0.019415	-9.800357	-0.000064	0.000578	-0.001043
23374	13714236	0.022757	0.017472	-9.829116	-0.000292	-0.000729	-0.003490
23375	13714261	0.021278	0.027967	-9.829593	-0.003923	0.001423	0.001474
23376	13714286	0.022890	0.016786	-9.840620	-0.005370	0.000553	0.002308
23377	13714311	0.020024	0.045407	-9.820956	-0.006323	-0.000578	-0.006162
23378	13714336	-0.011017	0.053476	-9.814570	-0.005761	0.000407	-0.003146
23379	13714361	-0.010920	0.035229	-9.799719	-0.007167	0.000252	-0.002496
23380	13714386	-0.011715	0.068266	-9.818886	-0.005609	-0.000560	-0.003335
23381	13714411	0.016519	0.031960	-9.842986	-0.007986	-0.002079	0.001206
23382	13714436	-0.015773	0.044743	-9.806893	-0.006722	-0.001281	0.001468
23383	13714461	-0.013403	0.075478	-9.802114	-0.002702	-0.005478	-0.001580
23384	13714486	-0.006385	0.065943	-9.826106	0.001132	-0.001018	-0.002787
23385	13714511	-0.035323	0.060983	-9.836501	0.003307	-0.000982	-0.003938
23386	13714536	-0.047616	0.056801	-9.844117	-0.007184	-0.001560	-0.005774
23387	13714561	-0.031539	0.051297	-9.814475	-0.006598	-0.001085	0.000706
23388	13714586	-0.038633	0.049370	-9.819704	-0.002903	-0.000635	0.000444
23389	13714611	-0.048739	0.046465	-9.793299	-0.005744	-0.001974	-0.000139
23390	13714636	-0.024599	0.053834	-9.847097	-0.007474	0.006065	-0.000603
23391	13714661	-0.047402	0.074176	-9.834526	-0.006200	0.000538	0.001614
23392	13714686	-0.022684	0.028065	-9.806842	-0.006436	-0.000440	-0.001352
23393	13714711	-0.043578	0.048971	-9.795718	-0.006075	-0.003929	-0.001301
23394	13714736	-0.039483	0.010050	-9.826893	-0.003447	0.000189	-0.001609
23395	13714761	-0.035445	0.030170	-9.833145	-0.003821	-0.000395	-0.001861
23396	13714786	-0.040285	0.012839	-9.791887	-0.000961	-0.005512	0.001243
23397	13714811	-0.022270	-0.007885	-9.814018	-0.007080	-0.004451	0.002095
23398	13714836	-0.007541	0.001170	-9.808338	-0.004223	0.000435	-0.000523
23399	13714861	-0.025343	0.033292	-9.841335	-0.004236	0.004895	-0.003570
23400	13714886	-0.010570	0.001517	-9.801144	-0.004739	-0.005180	0.004201
23401	13714911	-0.034388	0.017158	-9.819251	-0.003538	-0.000834	0.002745
23402	13714936	-0.022424	0.020227	-9.823614	-0.003515	0.002390	-0.002179
23403	13714961	-0.003877	0.012430	-9.823233	-0.007635	-0.003038	0.002362
23404	13714986	-0.018741	0.017716	-9.810704	-0.004926	-0.001515	0.000437
23405	13715011	-0.011781	0.034013	-9.816003	-0.005445	0.003007	0.002453
23406	13715036	0.013819	0.017829	-9.825230	-0.006378	0.001824	0.000580
23407	13715061	-0.018765	0.013683	-9.797752	-0.003789	0.001159	0.001733
23408	13715086	-0.015327	0.052465	-9.819346	-0.000539	-0.002794	-0.000349
23409	13715111	0.001491	0.036441	-9.810328	-0.003119	-0.001927	0.002095
23410	13715136	-0.007673	0.049732	-9.812199	-0.012052	0.002618	-0.004013
23411	13715161	-0.008514	0.047015	-9.823219	-0.008452	0.002559	-0.000815
23412	13715186	0.010044	0.038416	-9.806524	-0.008056	0.000045	-0.003593
23413	13715211	-0.008493	0.041217	-9.818906	-0.006081	0.000732	0.001353
23414	13715236	-0.007629	0.050817	-9.823690	-0.006963	-0.000197	-0.004426
23415	13715261	-0.004406	0.062879	-9.835224	-0.006403	-0.001480	-0.000778
23416	13715286	-0.018293	0.059003	-9.812630	-0.003435	-0.000253	-0.000200
23417	13715311	-0.006620	0.048914	-9.827060	-0.003748	0.001542	-0.003076
23418	13715336	-0.010142	0.053833	-9.811222	-0.002339	-0.000365	-0.000589
23419	13715361	-0.000524	0.047002	-9.818941	-0.006209	-0.003862	-0.003037
23420	13715386	-0.040751	0.033400	-9.833109	-0.004287	-0.003827	-0.001368
23421	13715411	-0.039140	0.049362	-9.819226	-0.004299	-0.003776	-0.006178
23422	13715436	-0.048263	0.056244	-9.811990	-0.005661	-0.000753	-0.002572
23423	13715461	-0.025710	0.021976	-9.848046	-0.003876	0.001346	-0.002563
23424	13715486	-0.017466	0.032116	-9.821248	-0.004639	-0.002730	0.000557
23425	13715511	-0.007978	0.008774	-9.833747	-0.008249	0.000107	-0.001153
23426	13715536	-0.020254	0.037528	-9.836573	-0.005850	-0.001216	-0.006358
23427	13715561	-0.004816	-0.001276	-9.796375	-0.005350	-0.002687	-0.003612
23428	13715586	-0.017369	0.021490	-9.805912	-0.008124	0.000250	0.001925
23429	13715611	-0.019085	0.018167	-9.841371	-0.003619	-0.004330	0.002213
23430	13715636	-0.020646	0.016824	-9.813565	-0.006935	-0.003095	-0.001107
23431	13715661	-0.020018	0.000392	-9.792459	-0.006993	0.003305	0.000660
23432	13715686	-0.004617	0.009882	-9.844303	-0.008953	0.002034	-0.001203
23433	13715711	-0.029797	0.032054	-9.828859	-0.003082	-0.003161	0.000168
23434	13715736	-0.006674	0.021331	-9.849101	-0.007206	-0.003050	-0.006811
23435	13715761	-0.000658	0.018384	-9.813184	-0.000788	-0.002523	0.005232
23436	13715786	0.010341	0.021713	-9.831458	-0.007237	-0.003162	0.004278
23437	13715811	-0.001504	0.024539	-9.838104	-0.006774	-0.002259	-0.004055
23438	13715836	0.005520	0.016566	-9.811771	-0.003469	-0.003625	-0.003491
23439	13715861	-0.010731	0.022517	-9.809298	-0.005044	-0.002022	0.001845
23440	13715886	-0.023903	0.049448	-9.814030	-0.002170	-0.001781	-0.000019
23441	13715911	-0.016428	0.032086	-9.819812	-0.003681	0.004077	0.004695
23442	13715936	-0.023363	0.042239	-9.806842	-0.002553	0.000341	-0.000392
23443	13715961	0.014502	0.025743	-9.812296	-0.007780	-0.000460	0.000384
23444	13715986	0.006346	0.031343	-9.817541	-0.001088	-0.001775	-0.002588
23445	13716011	-0.017412	0.067107	-9.814548	-0.003344	0.000703	-0.005972
23446	13716036	-0.010380	0.038849	-9.818409	-0.007714	-0.000596	-0.002506
23447	13716061	-0.015384	0.044097	-9.798259	-0.003459	-0.003624	-0.002013
23448	13716086	0.005427	0.026453	-9.804583	-0.003670	0.001094	-0.002442
23449	13716111	-0.028222	0.053754	-9.817372	-0.005947	-0.001919	-0.001678
23450	13716136	-0.032611	0.060793	-9.819746	0.000644	-0.005414	0.003093
23451	13716161	-0.000205	0.072107	-9.845315	-0.006905	-0.002006	-0.002381
23452	13716186	-0.028914	0.045187	-9.846120	-0.006083	-0.003861	-0.002778
23453	13716211	-0.000960	0.043935	-9.895629	-0.006282	-0.003146	0.003892
23454	13716236	-0.019208	0.040759	-9.865814	-0.000039	-0.004467	-0.001447
23455	13716261	-0.034719	0.059145	-9.774197	-0.002158	0.000025	-0.000909
23456	13716286	-0.040096	0.051075	-9.809155	-0.002201	0.001246	-0.002760
23457	13716311	-0.038051	0.016085	-9.751165	-0.006263	0.004411	-0.001644
23458	13716336	-0.015383	0.036560	-9.769964	-0.001408	0.002491	-0.001410
23459	13716361	-0.002560	0.047662	-9.864944	-0.002268	-0.000823	-0.003035
23460	13716386	-0.036044	0.065074	-9.882998	-0.002816	0.000466	-0.001153
23461	13716411	-0.013647	0.046118	-9.836615	-0.004658	0.002512	0.004558
23462	13716436	-0.014106	0.019164	-9.871107	-0.004375	-0.000858	0.000437
23463	13716461	-0.008810	0.012417	-9.858203	-0.008759	0.002171	-0.000884
23464	13716486	-0.016601	0.024870	-9.782428	-0.003785	0.002640	-0.002620
23465	13716511	-0.012704	-0.004624	-9.742176	-0.004941	-0.001056	0.000502
23466	13716536	-0.015372	-0.005167	-9.768999	-0.006874	0.000969	-0.004098
23467	13716561	-0.004131	0.025786	-9.800709	-0.004917	0.001711	-0.005509
23468	13716586	-0.027146	0.023394	-9.848041	-0.004086	0.000182	-0.001098
23469	13716611	-0.016905	0.047107	-9.869670	-0.005369	-0.006309	-0.003308
23470	13716636	-0.019122	0.039742	-9.861976	0.000556	0.002901	-0.006293
23471	13716661	0.004112	0.026820	-9.829026	-0.005966	0.000465	-0.004038
23472	13716686	-0.008951	0.035934	-9.816498	-0.004797	-0.004037	-0.004259
23473	13716711	-0.027251	0.032128	-9.773266	0.000201	0.000255	-0.000528
23474	13716736	-0.041690	0.034778	-9.763603	-0.006300	-0.007161	-0.003245
23475	13716761	-0.018527	0.032748	-9.802073	-0.007357	-0.001556	-0.000131
23476	13716786	-0.028905	0.026376	-9.800095	0.000435	0.000645	-0.005016
23477	13716811	-0.010867	0.044304	-9.838545	-0.002170	-0.003920	-0.000606
23478	13716836	-0.029805	0.051243	-9.871994	-0.006081	-0.005658	0.002089
23479	13716861	-0.028923	0.059859	-9.870092	-0.011028	-0.003037	0.001152
23480	13716886	0.011557	-0.001141	-9.827608	-0.001608	-0.003657	-0.001831
23481	13716911	-0.004058	0.022135	-9.807407	-0.006007	-0.001910	0.002101
23482	13716936	-0.029891	0.059459	-9.792912	-0.001606	-0.003126	0.000617
23483	13716961	-0.021752	0.046034	-9.774744	-0.002985	-0.002518	-0.002649
23484	13716986	-0.016731	0.033475	-9.786266	-0.004178	-0.003177	-0.001371
23485	13717011	-0.018689	0.031083	-9.850478	-0.004789	-0.001830	0.000949
23486	13717036	-0.015335	0.049820	-9.891729	-0.005150	-0.004753	-0.001247
23487	13717061	-0.018805	0.017317	-9.881151	0.001141	-0.001664	-0.003497
23488	13717086	-0.015176	0.044119	-9.830851	-0.003131	-0.001740	-0.000529
23489	13717111	-0.016813	0.023165	-9.824127	-0.002056	0.000539	-0.003597
23490	13717136	-0.010800	0.010487	-9.768075	-0.005215	0.001721	0.002316
23491	13717161	-0.015774	0.036459	-9.795380	-0.002146	-0.002296	0.001711
23492	13717186	-0.013938	0.043135	-9.797305	-0.002652	-0.004971	-0.002664
23493	13717211	-0.006448	0.043521	-9.841917	-0.007658	0.003472	-0.005043
23494	13717236	0.000768	0.026236	-9.824217	-0.006701	-0.000256	-0.002252
23495	13717261	-0.019154	0.029218	-9.851438	-0.004120	-0.003251	-0.003996
23496	13717286	-0.013970	0.018926	-9.824144	-0.005643	-0.003597	-0.002585
23497	13717311	-0.036405	0.035990	-9.840811	-0.006089	0.000334	-0.004484
23498	13717336	-0.017650	0.039884	-9.805906	0.001101	-0.001985	-0.001705
23499	13717361	-0.005466	0.024637	-9.820831	-0.004239	-0.001444	-0.003795
23500	13717386	-0.032076	0.046792	-9.798656	-0.007157	-0.002527	-0.005266
23501	13717411	-0.027472	0.028471	-9.806818	-0.007206	0.001676	-0.000177
23502	13717436	-0.009820	0.051836	-9.863470	-0.006217	-0.001803	-0.004436
23503	13717461	-0.001954	0.033851	-9.858232	-0.006109	0.001241	-0.002821
23504	13717486	-0.009190	0.067674	-9.842865	-0.004816	-0.003323	-0.003162
23505	13717511	-0.028721	0.070666	-9.839416	-0.003366	0.003748	-0.002868
23506	13717536	-0.019273	0.034713	-9.836578	-0.004806	-0.001577	-0.003347
23507	13717561	-0.004637	0.027799	-9.804546	-0.006782	-0.001937	-0.002256
23508	13717586	-0.017735	0.040670	-9.792495	-0.003476	-0.003029	-0.000666
23509	13717611	-0.028865	0.062769	-9.818804	-0.003879	-0.004791	-0.002401
23510	13717636	-0.011847	0.047616	-9.833257	-0.008385	-0.003771	-0.001878
23511	13717661	0.010424	0.061779	-9.841530	-0.011079	-0.001690	-0.003396
23512	13717686	-0.010671	0.027436	-9.817451	-0.007768	0.003350	-0.000942
23513	13717711	-0.006788	0.018088	-9.824657	-0.007935	-0.001886	-0.001414
23514	13717736	-0.005542	0.027438	-9.814119	-0.006655	-0.002132	-0.004627
23515	13717761	-0.015042	0.024366	-9.808803	-0.005557	-0.002103	-0.000653
23516	13717786	-0.012165	0.050263	-9.792530	-0.004563	-0.003390	-0.004448
23517	13717811	-0.017300	0.049387	-9.803999	-0.001901	-0.004701	-0.005938
23518	13717836	-0.020634	0.021211	-9.821224	-0.008386	0.000301	-0.001273
23519	13717861	-0.024884	0.018199	-9.817844	-0.002283	0.001504	-0.004105
23520	13717886	-0.019914	0.010860	-9.833211	-0.001936	0.001194	-0.000265
23521	13717911	-0.019853	0.040469	-9.839933	-0.006691	-0.003302	-0.007328
23522	13717936	-0.023552	0.021442	-9.809714	-0.006418	-0.003023	0.000685
23523	13717961	0.004628	0.005905	-9.794033	-0.007471	-0.002335	-0.001618
23524	13717986	-0.000234	0.039110	-9.830928	-0.005005	0.002614	-0.005960
23525	13718011	-0.018871	0.042320	-9.838981	-0.004138	-0.000007	0.002174
23526	13718036	-0.028966	0.037594	-9.816891	-0.003718	-0.001626	-0.003925
23527	13718061	-0.042085	0.001420	-9.852743	-0.002958	0.000784	-0.001605
23528	13718086	-0.022479	0.025105	-9.834170	-0.001705	-0.000559	-0.005278
23529	13718111	0.005723	0.015007	-9.831905	-0.005993	0.001502	-0.002815
23530	13718136	-0.021394	0.015790	-9.841352	-0.007300	0.000642	0.000073
23531	13718161	-0.020846	0.049341	-9.833693	-0.006314	0.003558	-0.005049
23532	13718186	-0.021234	0.019909	-9.800625	-0.005153	-0.003007	-0.003678
23533	13718211	-0.022264	0.067046	-9.812604	-0.006162	-0.004952	0.001706
23534	13718236	0.005538	0.029091	-9.822809	-0.004761	0.003207	-0.002106
23535	13718261	-0.038088	0.044234	-9.824026	-0.004642	-0.002217	0.001527
23536	13718286	-0.020808	0.034036	-9.825075	-0.004695	-0.003393	-0.005922
23537	13718311	-0.014924	0.066845	-9.827990	-0.003345	0.001237	0.000574
23538	13718336	-0.036438	0.067374	-9.815883	-0.004467	0.002378	0.000331
23539	13718361	-0.016109	0.039157	-9.816951	-0.002299	-0.001854	-0.001560
23540	13718386	0.005908	0.020528	-9.793562	-0.000963	0.000559	-0.002517
23541	13718411	0.000500	0.060716	-9.847230	-0.004454	-0.000274	0.000183
23542	13718436	-0.007116	0.051924	-9.833293	-0.009307	0.000791	-0.006013
23543	13718461	-0.006311	0.047759	-9.809325	-0.007431	-0.003827	-0.004955
23544	13718486	-0.029096	0.045052	-9.810650	0.000592	-0.002058	-0.001375
23545	13718511	-0.006017	0.041449	-9.834724	-0.003631	0.002065	-0.000891
23546	13718536	-0.005812	0.048222	-9.812683	-0.002271	-0.002235	0.002800
23547	13718561	-0.033898	0.049833	-9.813505	-0.004536	-0.001961	-0.001810
23548	13718586	-0.001919	0.013670	-9.814137	-0.002800	0.004146	-0.002171
23549	13718611	0.008367	0.025180	-9.812271	-0.005941	0.002353	-0.000183
23550	13718636	-0.005345	0.026801	-9.837121	-0.005202	0.000805	-0.002179
23551	13718661	0.010371	0.030276	-9.841037	0.000873	0.001229	-0.002711
23552	13718686	-0.000285	0.027060	-9.819412	-0.001451	-0.004551	-0.002350
23553	13718711	-0.008256	0.022781	-9.822732	-0.006326	0.000209	0.000580
23554	13718736	0.015331	-0.000210	-9.823793	-0.005278	-0.003138	-0.003096
23555	13718761	0.012420	0.006852	-9.822357	-0.001833	-0.000559	-0.003356
23556	13718786	-0.008808	-0.003130	-9.836143	-0.005323	-0.001654	-0.004376
23557	13718811	-0.017106	0.007993	-9.824610	-0.006077	-0.001921	-0.002579
23558	13718836	-0.001464	0.005052	-9.803104	-0.006950	-0.000645	-0.002959
23559	13718861	-0.026091	0.027065	-9.808749	-0.003844	-0.005890	-0.002730
23560	13718886	-0.015009	0.029770	-9.821737	-0.004035	0.000243	-0.003470
23561	13718911	-0.006579	0.021377	-9.854370	-0.004733	-0.000164	-0.007641
23562	13718936	-0.000242	0.040724	-9.840028	-0.008573	0.000098	-0.003844
23563	13718961	-0.005483	0.015066	-9.781992	-0.005050	0.004432	0.000532
23564	13718986	-0.021018	0.047668	-9.813087	-0.010282	-0.000311	-0.000565
23565	13719011	-0.033514	0.060353	-9.819746	-0.004034	0.000112	-0.005002
23566	13719036	-0.019998	0.062226	-9.778107	-0.002158	-0.002441	-0.005090
23567	13719061	-0.038775	0.033094	-9.840798	-0.003693	-0.004199	0.001638
23568	13719086	-0.039774	0.033853	-9.826892	-0.009139	0.001967	0.000082
23569	13719111	-0.020891	0.041455	-9.816915	-0.001442	0.001717	-0.001094
23570	13719136	-0.023526	0.042715	-9.865324	-0.008307	-0.003892	0.002487
23571	13719161	-0.020677	0.065344	-9.825556	-0.007503	0.000960	-0.000563
23572	13719186	-0.058944	0.063460	-9.795642	-0.003877	-0.000528	-0.002567
23573	13719211	-0.038249	0.057560	-9.825460	-0.005826	-0.004123	-0.007139
23574	13719236	-0.015147	0.044314	-9.834210	-0.011308	-0.004667	-0.003923
23575	13719261	-0.018841	0.057421	-9.795843	-0.012812	0.000741	-0.000428
23576	13719286	-0.028554	0.054450	-9.833181	-0.004908	0.001581	-0.005637
23577	13719311	-0.025918	0.032672	-9.834146	-0.004233	0.000432	-0.003721
23578	13719336	-0.019668	0.049797	-9.799194	-0.005747	0.000085	-0.002185
23579	13719361	-0.027839	0.039005	-9.844685	-0.006039	-0.000876	0.002366
23580	13719386	-0.014748	0.021599	-9.847140	-0.003099	-0.000776	-0.002903
23581	13719411	-0.039423	0.046375	-9.836475	-0.011031	-0.000976	-0.001404
23582	13719436	0.013796	0.011267	-9.824753	-0.008819	-0.002296	-0.003216
23583	13719461	-0.008949	0.023761	-9.796852	-0.003755	-0.001805	0.004411
23584	13719486	0.015646	0.016363	-9.819019	-0.007577	0.001220	-0.001083
23585	13719511	-0.007283	0.013890	-9.802604	-0.002989	-0.000453	-0.005272
23586	13719536	0.034192	0.023448	-9.828698	-0.010419	0.001812	-0.001076
23587	13719561	-0.005154	0.010665	-9.832811	-0.008790	0.000806	-0.003135
23588	13719586	0.002227	0.016694	-9.817982	-0.008434	-0.002746	-0.005591
23589	13719611	0.010427	0.013521	-9.822351	-0.007406	-0.002329	-0.001554
23590	13719636	-0.031253	0.040080	-9.765112	-0.002776	-0.004961	-0.001828
23591	13719661	0.006391	0.016378	-9.796440	-0.006519	-0.001664	0.002171
23592	13719686	0.005678	0.009149	-9.813208	-0.013086	-0.000817	-0.002366
23593	13719711	-0.003064	0.025100	-9.814608	-0.007062	0.001432	0.002830
23594	13719736	-0.002938	0.015756	-9.827548	-0.003514	-0.003877	0.000355
23595	13719761	-0.024142	0.039334	-9.835118	-0.003691	-0.002268	-0.000662
23596	13719786	-0.037394	0.030431	-9.824503	-0.000358	-0.002334	-0.000282
23597	13719811	-0.020262	0.023766	-9.803020	-0.006375	0.001629	-0.001854
23598	13719836	-0.032470	0.041969	-9.795290	-0.005175	-0.001839	-0.000976
23599	13719861	-0.041690	0.067948	-9.827851	-0.002609	-0.003988	0.000483
23600	13719886	-0.024978	0.026852	-9.826481	-0.002690	-0.003792	0.000481
23601	13719911	-0.048767	0.064567	-9.828292	-0.006682	-0.000694	0.002047
23602	13719936	-0.003919	0.020026	-9.828496	-0.001647	-0.001080	-0.009128
23603	13719961	-0.031580	0.033093	-9.838909	-0.000520	0.002371	-0.005524
23604	13719986	-0.026459	0.036069	-9.834621	-0.009543	-0.001715	-0.000839
23605	13720011	-0.027013	0.039239	-9.829349	-0.004190	-0.000982	-0.001553
23606	13720036	-0.025873	0.049330	-9.808272	-0.001286	-0.005978	-0.004536
23607	13720061	-0.028855	0.057621	-9.791004	-0.004922	0.000238	-0.001550
23608	13720086	-0.034844	0.053141	-9.813974	-0.006202	0.000285	-0.000583
23609	13720111	-0.044818	0.043241	-9.797626	-0.002618	0.002147	-0.003783
23610	13720136	-0.044070	0.057639	-9.803389	-0.005662	-0.001140	-0.003728
23611	13720161	-0.015763	0.054886	-9.817915	-0.006907	0.002071	-0.003907
23612	13720186	-0.016053	0.043365	-9.842354	-0.003995	-0.003439	-0.004902
23613	13720211	-0.017965	0.029613	-9.814543	-0.003934	-0.005113	-0.001900
23614	13720236	0.010000	0.011235	-9.828573	-0.005798	-0.002486	0.002992
23615	13720261	0.002156	0.023612	-9.807926	-0.004721	0.002119	0.000194
23616	13720286	0.012620	0.003300	-9.775371	-0.001878	-0.002873	0.000539
23617	13720311	-0.031972	0.024050	-9.832197	-0.006545	0.002922	0.000077
23618	13720336	-0.031338	0.041997	-9.828859	-0.002404	-0.002363	0.001834
23619	13720361	-0.008265	0.020686	-9.814578	-0.001100	0.000361	-0.005470
23620	13720386	-0.000430	0.017512	-9.847694	-0.003156	-0.001223	-0.002523
23621	13720411	-0.007599	0.035806	-9.806919	-0.004674	-0.003374	0.002089
23622	13720436	0.001592	0.030662	-9.808403	-0.000800	0.001270	-0.004381
23623	13720461	0.023328	0.016711	-9.836316	-0.003314	-0.000514	-0.004373
23624	13720486	0.001883	0.040481	-9.794510	-0.005724	0.003393	0.002319
23625	13720511	-0.008590	0.005978	-9.815055	-0.001206	-0.001755	0.002474
23626	13720536	-0.000021	0.039493	-9.794980	-0.003384	0.002334	-0.001606
23627	13720561	-0.005186	0.004839	-9.826106	-0.004831	-0.000995	-0.001231
23628	13720586	-0.015280	0.013176	-9.823656	-0.004749	-0.001575	-0.003929
23629	13720611	-0.002723	0.040527	-9.826599	-0.011007	0.000525	0.002895
23630	13720636	-0.018537	0.081626	-9.835159	-0.003512	-0.006066	0.000860
23631	13720661	-0.026430	0.073018	-9.834157	-0.004931	-0.001511	-0.001171
23632	13720686	-0.023975	0.058089	-9.821224	-0.002603	-0.002502	-0.001886
23633	13720711	0.001152	0.029926	-9.818464	-0.005026	-0.002612	-0.000347
23634	13720736	-0.001767	0.036649	-9.824687	-0.004782	-0.002280	-0.000665
23635	13720761	-0.008476	0.031483	-9.804988	-0.004622	-0.001243	-0.000085
23636	13720786	-0.031855	0.041387	-9.814952	-0.007676	-0.000077	-0.005262
23637	13720811	-0.051035	0.027243	-9.840256	-0.003789	0.002843	-0.001402
23638	13720836	-0.024093	0.022447	-9.808760	-0.010695	-0.003673	0.000437
23639	13720861	-0.054703	0.031820	-9.802371	-0.004023	-0.002339	-0.004444
23640	13720886	-0.042164	0.035850	-9.835510	-0.007236	-0.002143	-0.007965
23641	13720911	-0.031916	0.052848	-9.825492	-0.003019	0.000590	-0.002830
23642	13720936	-0.025132	0.048798	-9.835595	-0.004101	0.000641	-0.001098
23643	13720961	-0.001767	0.036749	-9.825645	-0.011270	-0.003745	0.000948
23644	13720986	-0.027118	0.044399	-9.824561	-0.005817	-0.002302	-0.003994
23645	13721011	-0.054386	0.045128	-9.802371	-0.005431	-0.000098	-0.002438
23646	13721036	-0.010508	0.016667	-9.826070	-0.010982	0.001489	-0.001462
23647	13721061	-0.033512	0.030705	-9.831703	-0.009084	0.002100	-0.001074
23648	13721086	-0.036971	0.025026	-9.806765	-0.004801	0.000305	-0.001092
23649	13721111	-0.005050	0.024421	-9.806454	-0.005142	-0.002997	0.000039
23650	13721136	-0.028886	0.030228	-9.803456	-0.000840	0.002633	-0.003147
23651	13721161	-0.015125	0.037895	-9.824144	-0.005995	-0.000368	0.000443
23652	13721186	-0.006408	0.020335	-9.814590	-0.005737	-0.002690	-0.003746
23653	13721211	-0.000781	0.037607	-9.827566	-0.004964	-0.002207	0.005941
23654	13721236	-0.019912	0.040716	-9.828436	-0.003634	-0.004271	-0.002153
23655	13721261	-0.017146	0.045751	-9.813583	-0.005762	0.000350	-0.000972
23656	13721286	-0.025058	0.039752	-9.835112	-0.000770	0.000969	0.002104
23657	13721311	-0.011575	0.008719	-9.804976	-0.004809	-0.003387	-0.000289
23658	13721336	-0.010270	0.017600	-9.793484	-0.010674	-0.002450	-0.002769
23659	13721361	-0.019176	0.046518	-9.802556	-0.005232	-0.002688	-0.006115
23660	13721386	-0.029836	0.030005	-9.814483	-0.006816	-0.000899	-0.002447
23661	13721411	-0.028765	0.037572	-9.845638	-0.005464	0.001003	-0.001664
23662	13721436	0.005624	0.017678	-9.822321	-0.004581	-0.001059	-0.006494
23663	13721461	-0.002664	0.022755	-9.817010	-0.006229	-0.007282	0.000019
23664	13721486	-0.002427	0.022201	-9.844333	-0.004753	-0.003181	0.000936
23665	13721511	0.002078	0.041538	-9.834284	-0.003111	-0.000776	-0.006112
23666	13721536	-0.016509	0.033080	-9.818858	-0.007729	-0.000195	0.000513
23667	13721561	-0.034229	0.053654	-9.849923	-0.003536	-0.003289	-0.000797
23668	13721586	-0.031742	0.034923	-9.824066	-0.009751	-0.001074	-0.000705
23669	13721611	-0.014076	0.029751	-9.818393	-0.006898	-0.000122	-0.001483
23670	13721636	-0.002586	0.018810	-9.805500	-0.008947	0.001517	-0.002363
23671	13721661	-0.040286	0.036263	-9.833592	-0.003149	-0.001408	-0.001109
23672	13721686	-0.003407	0.045968	-9.815097	-0.003904	-0.004011	-0.002278
23673	13721711	-0.029841	0.037856	-9.832213	-0.008760	-0.004022	0.001583
23674	13721736	-0.030220	0.034101	-9.833640	-0.006600	0.000466	-0.002824
23675	13721761	-0.045629	0.035028	-9.816794	-0.004563	-0.003442	-0.003040
23676	13721786	-0.029421	0.032739	-9.810156	-0.005274	-0.000276	0.004935
23677	13721811	-0.021763	0.031111	-9.820753	-0.005457	-0.003196	0.000940
23678	13721836	-0.007563	0.007279	-9.834713	-0.003673	-0.005300	-0.002605
23679	13721861	0.015497	0.035245	-9.841065	-0.010450	-0.003617	-0.004762
23680	13721886	0.000627	0.037566	-9.825659	-0.000845	-0.001380	-0.002849
23681	13721911	-0.013718	0.067064	-9.805940	-0.006917	-0.006142	-0.006065
23682	13721936	-0.018867	0.064113	-9.805435	-0.003015	-0.001539	-0.001694
23683	13721961	-0.006534	0.033888	-9.805971	-0.002782	0.003575	0.000389
23684	13721986	-0.001993	0.046415	-9.812700	-0.004663	-0.004223	-0.001639
23685	13722011	-0.008530	0.038686	-9.807873	-0.006440	-0.000499	-0.000462
23686	13722036	-0.000866	0.040427	-9.823733	-0.005212	-0.002745	-0.000536
23687	13722061	-0.007246	0.055531	-9.826106	-0.004271	-0.004739	-0.005679
23688	13722086	-0.021003	0.053432	-9.822673	-0.003989	0.001027	-0.000519
23689	13722111	-0.006337	0.020331	-9.820336	-0.002410	-0.000505	-0.003996
23690	13722136	0.005637	0.040526	-9.795481	-0.004168	-0.001763	-0.005156
23691	13722161	-0.015781	0.047511	-9.803051	-0.005111	0.002046	-0.001283
23692	13722186	-0.012581	0.023096	-9.813118	-0.009710	-0.000432	-0.003146
23693	13722211	-0.020509	0.044729	-9.812605	-0.004184	-0.000712	0.001851
23694	13722236	-0.033318	0.046727	-9.827411	-0.005950	-0.003847	0.000618
23695	13722261	-0.005652	0.008093	-9.823215	-0.005522	0.002871	-0.000313
23696	13722286	-0.033196	0.050860	-9.849452	-0.006530	0.002338	-0.002617
23697	13722311	-0.023838	0.041318	-9.810198	-0.001235	-0.005192	-0.000556
23698	13722336	-0.014986	0.013304	-9.795374	-0.009242	-0.002997	0.001395
23699	13722361	-0.020973	0.038306	-9.798229	-0.003333	0.000320	-0.004050
23700	13722386	-0.011770	0.030588	-9.809298	-0.005551	-0.000161	-0.000261
23701	13722411	-0.002765	0.006224	-9.823233	-0.004923	0.001979	-0.003462
23702	13722436	-0.012536	0.023281	-9.827030	-0.006522	-0.001729	0.001140
23703	13722461	-0.016210	0.055170	-9.838037	-0.006287	-0.003278	-0.000151
23704	13722486	-0.006216	0.024000	-9.841436	-0.004022	0.001730	-0.004427
23705	13722511	-0.036784	0.054111	-9.821158	-0.002013	-0.002544	0.003055
23706	13722536	-0.037308	0.053590	-9.807251	-0.010201	-0.002956	-0.000465
23707	13722561	-0.000830	0.022387	-9.794962	-0.002886	-0.001535	-0.000598
23708	13722586	-0.031224	0.026008	-9.808720	-0.002544	-0.000109	-0.001426
23709	13722611	-0.013815	0.037135	-9.807849	-0.002970	-0.005034	-0.002030
23710	13722636	-0.022025	0.048963	-9.810208	-0.004284	-0.004151	-0.004520
23711	13722661	-0.003355	0.015922	-9.833776	-0.010259	-0.001410	-0.002183
23712	13722686	-0.009642	0.017036	-9.819853	-0.008304	-0.002348	-0.002709
23713	13722711	-0.014404	0.019516	-9.828454	-0.009277	-0.000364	-0.004934
23714	13722736	-0.007365	0.067253	-9.813629	-0.006375	0.003964	-0.000432
23715	13722761	-0.034390	0.051148	-9.813017	-0.000054	0.000788	0.004216
23716	13722786	-0.029828	0.065842	-9.802018	-0.006193	0.001891	-0.000189
23717	13722811	-0.006152	0.043629	-9.817479	-0.008914	-0.001258	-0.001995
23718	13722836	-0.014762	0.045438	-9.817438	-0.007825	-0.001112	-0.001100
23719	13722861	-0.018584	0.040460	-9.813577	-0.003678	-0.005046	-0.002669
23720	13722886	-0.019452	0.044135	-9.832268	-0.006948	-0.003237	-0.006369
23721	13722911	-0.029819	0.030619	-9.828859	-0.002436	-0.005525	0.003165
23722	13722936	0.002322	0.014706	-9.818470	-0.001767	0.001583	-0.002061
23723	13722961	0.010912	0.012375	-9.813714	-0.000031	0.001158	-0.005472
23724	13722986	-0.010361	0.028447	-9.795880	-0.001363	0.000681	-0.005212
23725	13723011	-0.018580	0.040028	-9.811663	-0.007182	-0.001030	0.000894
23726	13723036	-0.025028	0.028685	-9.819299	-0.004043	-0.001690	-0.003675
23727	13723061	-0.038643	0.030374	-9.849417	-0.005323	0.000685	-0.001670
23728	13723086	-0.011402	0.013317	-9.829420	-0.003943	0.001480	-0.000519
23729	13723111	0.003282	0.020673	-9.831894	-0.005671	0.001383	-0.003079
23730	13723136	-0.006077	-0.004380	-9.816504	-0.003913	-0.003549	0.000419
23731	13723161	-0.034376	0.010817	-9.810125	-0.000918	-0.001049	-0.001697
23732	13723186	-0.038412	0.027884	-9.811073	-0.003459	0.000395	-0.001413
23733	13723211	-0.023053	0.035782	-9.848546	-0.007325	-0.002579	0.001526
23734	13723236	-0.038942	0.031678	-9.803407	-0.010388	0.000654	-0.004929
23735	13723261	-0.010634	0.035921	-9.848129	-0.004260	0.002135	0.005135
23736	13723286	-0.012531	0.067585	-9.841416	-0.004560	-0.003242	0.000486
23737	13723311	-0.014434	0.027597	-9.836608	-0.003394	-0.001602	0.001583
23738	13723336	-0.016790	0.056221	-9.815979	-0.002985	-0.000449	-0.003481
23739	13723361	-0.044697	0.044756	-9.829269	-0.010143	-0.000951	-0.000377
23740	13723386	-0.020360	0.045842	-9.825068	-0.002666	0.003901	0.000964
23741	13723411	-0.017717	0.055762	-9.816450	-0.002988	0.001825	-0.000134
23742	13723436	-0.033601	0.032077	-9.828364	-0.009134	-0.000551	-0.002754
23743	13723461	-0.014682	0.049380	-9.831339	-0.004528	0.001656	-0.003915
23744	13723486	-0.014443	0.057801	-9.822714	-0.004224	-0.001951	-0.002454
23745	13723511	-0.006580	0.031053	-9.803576	-0.006276	-0.001466	0.001074
23746	13723536	-0.018700	0.022647	-9.827471	0.000128	0.000392	-0.000860
23747	13723561	-0.051834	0.068366	-9.802872	-0.001681	-0.003001	-0.000478
23748	13723586	-0.052126	0.049117	-9.779853	-0.005461	0.005533	0.000863
23749	13723611	-0.033081	0.078304	-9.844182	-0.007588	-0.000718	-0.002953
23750	13723636	-0.046603	0.077888	-9.827344	-0.005710	-0.003989	-0.007077
23751	13723661	-0.045085	0.040138	-9.839325	-0.007056	-0.005557	-0.003237
23752	13723686	-0.032025	0.062468	-9.833646	-0.003013	-0.001873	-0.005794
23753	13723711	-0.016577	0.034884	-9.815985	-0.002579	-0.003208	-0.000225
23754	13723736	0.006337	0.038182	-9.825206	-0.005063	0.000295	-0.002827
23755	13723761	-0.021400	0.039361	-9.804451	-0.002119	0.000669	-0.001553
23756	13723786	-0.023814	0.041305	-9.809714	-0.002129	-0.001070	-0.000402
23757	13723811	-0.006123	0.012109	-9.835678	-0.006938	0.000910	-0.002433
23758	13723836	-0.006195	0.004087	-9.814585	0.001055	-0.002766	-0.001064
23759	13723861	-0.025627	0.042102	-9.827447	-0.005241	-0.002034	-0.002262
23760	13723886	-0.006919	0.028800	-9.812671	-0.007243	0.002714	-0.002490
23761	13723911	0.029105	0.005282	-9.828663	-0.003673	-0.002903	0.001314
23762	13723936	0.017124	0.013181	-9.827173	-0.004213	-0.001952	-0.000282
23763	13723961	-0.011028	0.019890	-9.830868	0.002198	-0.000286	0.000291
23764	13723986	-0.000701	0.014792	-9.792578	-0.003316	0.001812	-0.001156
23765	13724011	-0.044394	0.054985	-9.814410	-0.007285	0.000001	-0.001928
23766	13724036	-0.012288	0.028746	-9.811693	-0.007246	-0.005484	0.000291
23767	13724061	-0.006564	0.029106	-9.802616	-0.005619	-0.002234	-0.002649
23768	13724086	0.001315	0.017638	-9.822303	-0.003681	-0.002772	-0.000030
23769	13724111	-0.013277	0.030887	-9.800184	-0.003415	-0.001094	-0.001170
23770	13724136	-0.005613	0.025833	-9.804047	-0.006095	-0.005734	-0.004078
23771	13724161	-0.004161	0.018979	-9.789199	-0.006129	-0.001982	0.000496
23772	13724186	-0.011470	0.039126	-9.808826	-0.005163	-0.002280	0.001204
23773	13724211	-0.019829	0.032141	-9.824592	-0.005186	-0.003836	-0.001055
23774	13724236	0.003683	0.023010	-9.827107	-0.008129	-0.001958	-0.003543
23775	13724261	-0.045964	0.046965	-9.853703	-0.004467	-0.000083	-0.002769
23776	13724286	-0.042141	0.053809	-9.803872	-0.004581	-0.003134	-0.007074
23777	13724311	-0.033476	0.048115	-9.797203	-0.002782	0.001636	-0.000328
23778	13724336	-0.037224	0.014195	-9.814919	-0.002800	-0.000046	0.001265
23779	13724361	-0.024458	0.056080	-9.811152	-0.005260	0.000422	-0.002822
23780	13724386	-0.015453	0.060403	-9.804480	-0.008763	0.004239	-0.002541
23781	13724411	-0.009629	0.025861	-9.839505	-0.006706	0.000343	0.003017
23782	13724436	-0.007032	0.019106	-9.864437	-0.002526	-0.005025	-0.002222
23783	13724461	0.003958	0.026474	-9.871685	-0.001585	0.001711	-0.003405
23784	13724486	-0.024533	0.034703	-9.839916	-0.006109	-0.003348	-0.005153
23785	13724511	-0.005795	0.017561	-9.824175	0.000682	-0.001024	0.000738
23786	13724536	-0.004881	0.010648	-9.803086	-0.005700	0.000019	-0.005330
23787	13724561	-0.012573	0.043805	-9.772377	-0.007395	0.003555	-0.001653
23788	13724586	-0.032476	0.046406	-9.801529	-0.010633	0.002328	-0.004594
23789	13724611	0.004859	0.025889	-9.796924	-0.008121	-0.002149	-0.002515
23790	13724636	-0.026609	0.040911	-9.814489	-0.004554	0.000897	0.001279
23791	13724661	0.000088	0.005443	-9.830915	-0.004672	-0.001504	0.000881
23792	13724686	-0.007572	0.045239	-9.835196	-0.001882	-0.003003	-0.000674
23793	13724711	-0.024670	0.041533	-9.825527	-0.003414	-0.000967	-0.000274
23794	13724736	-0.023635	0.023750	-9.809232	-0.002795	-0.002244	0.000937
23795	13724761	-0.035641	0.026209	-9.789526	-0.006860	-0.001810	-0.006616
23796	13724786	-0.023435	0.052470	-9.820263	-0.006334	0.000082	-0.002114
23797	13724811	-0.027809	0.041125	-9.860987	-0.003780	-0.003748	-0.000350
23798	13724836	-0.034431	0.030859	-9.842251	-0.009763	-0.001086	-0.005837
23799	13724861	-0.041493	0.017773	-9.829271	-0.009421	0.000146	-0.006086
23800	13724886	-0.014219	0.036438	-9.815995	-0.010748	-0.002061	0.000700
23801	13724911	-0.008469	0.042679	-9.823221	-0.004220	0.000718	0.007045
23802	13724936	-0.016576	0.045981	-9.827966	-0.004221	0.001983	-0.005645
23803	13724961	-0.036119	0.039441	-9.821147	-0.001460	0.000298	0.001656
23804	13724986	-0.006534	0.031530	-9.803570	-0.007269	0.001423	-0.001602
23805	13725011	-0.026834	0.024871	-9.824551	-0.000881	-0.000218	-0.004251
23806	13725036	-0.026410	0.030080	-9.817368	-0.005972	0.002731	-0.005443
23807	13725061	-0.035524	0.064701	-9.824525	-0.004621	-0.005575	-0.001448
23808	13725086	-0.020604	0.044601	-9.801106	-0.007239	-0.003816	-0.003676
23809	13725111	-0.015205	0.054403	-9.849546	-0.007589	-0.004588	0.001450
23810	13725136	-0.005743	0.048966	-9.823714	-0.008275	-0.003712	-0.007716
23811	13725161	-0.004593	0.025908	-9.811247	0.000314	-0.001612	-0.000998
23812	13725186	0.009016	0.042661	-9.807486	-0.004712	-0.002281	0.000487
23813	13725211	-0.025068	0.045142	-9.841341	-0.005697	0.000551	-0.000386
23814	13725236	-0.011976	0.055437	-9.823674	-0.003581	0.000654	0.002497
23815	13725261	-0.012228	0.031136	-9.817923	-0.002854	-0.002302	0.002925
23816	13725286	-0.028589	0.035842	-9.797234	-0.003724	-0.001562	-0.004634
23817	13725311	-0.020337	0.046258	-9.849040	-0.006492	-0.003356	-0.005470
23818	13725336	-0.016446	0.032791	-9.834682	-0.004224	-0.004153	-0.004517
23819	13725361	-0.018592	0.049355	-9.835630	-0.002058	-0.005859	-0.003187
23820	13725386	-0.019026	0.043294	-9.812135	-0.001329	-0.000219	-0.003095
23821	13725411	-0.016492	0.036988	-9.829402	-0.006191	0.000021	0.001407
23822	13725436	-0.010426	0.037784	-9.816980	-0.001496	-0.003198	-0.002083
23823	13725461	-0.015335	0.016351	-9.815025	-0.001764	0.001256	-0.003923
23824	13725486	-0.020244	0.033183	-9.832740	-0.002946	-0.001799	-0.001690
23825	13725511	-0.037456	0.039131	-9.832657	-0.002210	-0.000751	-0.001749
23826	13725536	-0.027291	0.027806	-9.830785	-0.002681	0.000076	-0.003347
23827	13725561	-0.038162	0.042994	-9.803409	-0.004457	0.001338	-0.003396
23828	13725586	-0.023521	0.030250	-9.827441	-0.006837	0.002146	-0.000761
23829	13725611	-0.007198	0.042320	-9.803086	0.000452	-0.001600	0.000356
23830	13725636	-0.020106	0.013995	-9.817404	-0.003885	-0.000787	-0.005014
23831	13725661	-0.005017	0.038635	-9.832822	-0.008444	0.002243	-0.002106
23832	13725686	-0.031618	0.016940	-9.799123	-0.005384	0.004490	-0.002800
23833	13725711	-0.008444	0.082574	-9.826104	-0.004032	0.002509	-0.001219
23834	13725736	-0.011870	0.048605	-9.839016	-0.004755	-0.002791	0.003444
23835	13725761	-0.013718	0.032873	-9.807843	-0.000273	-0.001103	-0.001566
23836	13725786	-0.040580	0.047708	-9.804845	-0.004895	0.000942	-0.004999
23837	13725811	-0.040613	0.070170	-9.845106	-0.005959	0.000343	-0.003079
23838	13725836	-0.018060	0.051305	-9.838986	-0.001834	-0.002626	-0.003427
23839	13725861	0.021980	0.021508	-9.778786	-0.004508	0.001147	-0.001547
23840	13725886	-0.005447	0.021102	-9.806931	-0.000556	-0.000204	0.000103
23841	13725911	-0.026446	0.045183	-9.845161	-0.004221	0.004382	-0.002612
23842	13725936	0.010399	0.021745	-9.833849	-0.006115	-0.001021	-0.005719
23843	13725961	0.011271	0.013705	-9.803653	-0.006379	-0.000967	-0.008541
23844	13725986	0.005074	0.019586	-9.814173	-0.013582	0.000073	-0.005820
23845	13726011	-0.026439	0.027231	-9.821206	-0.005499	-0.002103	-0.002261
23846	13726036	0.010935	0.013523	-9.823293	-0.005513	0.000148	-0.007772
23847	13726061	-0.011621	0.012787	-9.792513	-0.006874	0.001040	-0.002566
23848	13726086	-0.014865	0.012045	-9.808797	-0.006536	0.000268	-0.003912
23849	13726111	-0.031278	0.034303	-9.821182	-0.004157	-0.001824	-0.002971
23850	13726136	-0.025978	0.026330	-9.822160	-0.004469	-0.002019	-0.001043
23851	13726161	-0.023964	0.024099	-9.829844	-0.005120	-0.001831	-0.000085
23852	13726186	0.002979	0.000255	-9.830928	-0.004801	-0.003703	0.000483
23853	13726211	-0.003288	0.013442	-9.828025	-0.007807	0.002515	-0.000826
23854	13726236	-0.019149	0.015370	-9.815001	-0.003327	-0.001612	-0.000025
23855	13726261	-0.041086	0.051068	-9.805797	-0.007984	-0.000273	-0.001860
23856	13726286	-0.014427	0.057063	-9.811205	-0.001346	0.002560	-0.000456
23857	13726311	-0.036396	0.049534	-9.798157	-0.002284	-0.002496	-0.002337
23858	13726336	-0.031567	0.060644	-9.833651	-0.010753	-0.005607	0.002994
23859	13726361	-0.058336	0.060977	-9.819137	-0.003459	-0.005414	0.002657
23860	13726386	-0.032400	0.035927	-9.805834	-0.003053	-0.004324	-0.001122
23861	13726411	-0.021293	0.048132	-9.846168	-0.006366	-0.000821	-0.001034
23862	13726436	-0.007711	0.029378	-9.852457	-0.003117	-0.002322	-0.001180
23863	13726461	-0.019416	0.047195	-9.844250	-0.005092	-0.002545	-0.000086
23864	13726486	-0.051833	0.077310	-9.823487	-0.008109	-0.004406	-0.000402
23865	13726511	-0.031544	0.046922	-9.807288	-0.006138	-0.003725	0.001770
23866	13726536	-0.035698	0.040310	-9.814936	-0.003856	-0.003430	-0.002849
23867	13726561	-0.029640	0.044489	-9.803945	-0.003396	-0.003807	-0.001508
23868	13726586	-0.013641	0.029045	-9.807837	0.001711	0.001064	-0.001171
23869	13726611	0.000294	0.034470	-9.842909	0.001660	0.000086	-0.004330
23870	13726636	-0.018620	0.010706	-9.817886	-0.006096	-0.000937	0.003709
23871	13726661	-0.020216	0.023368	-9.809727	-0.005223	-0.000416	-0.000784
23872	13726686	-0.013474	0.017331	-9.812630	-0.004521	-0.000131	0.003965
23873	13726711	-0.029601	0.017832	-9.825498	-0.009190	-0.001012	-0.006224
23874	13726736	-0.003595	0.003200	-9.845268	-0.001439	-0.002933	-0.002477
23875	13726761	-0.003168	0.018498	-9.784895	-0.007404	-0.000384	-0.000586
23876	13726786	-0.004337	-0.001423	-9.793991	-0.001767	-0.000884	-0.004958
23877	13726811	-0.029744	0.065327	-9.827910	-0.006813	-0.002959	-0.000593
23878	13726836	-0.034744	0.018545	-9.844166	-0.009052	-0.001203	-0.004365
23879	13726861	0.003034	0.032880	-9.823746	-0.003488	-0.002646	0.000165
23880	13726886	-0.001269	0.033573	-9.810305	-0.005753	0.004159	-0.003511
23881	13726911	0.001173	0.028512	-9.819907	-0.004004	-0.000519	-0.000463
23882	13726936	-0.012364	0.009993	-9.827495	-0.006199	-0.002043	0.000560
23883	13726961	-0.001056	0.045837	-9.804559	-0.005151	-0.002736	0.000618
23884	13726986	0.016784	0.018160	-9.783072	-0.001647	-0.002953	-0.008696
23885	13727011	-0.027726	0.051396	-9.816896	-0.005569	-0.001846	-0.002968
23886	13727036	-0.015767	0.051515	-9.815990	-0.004582	-0.000529	-0.000143
23887	13727061	0.001555	0.040051	-9.830463	-0.004217	-0.000007	-0.002059
23888	13727086	-0.021928	0.040392	-9.807329	-0.007199	-0.002901	-0.000212
23889	13727111	-0.012407	0.040461	-9.805452	-0.001998	-0.001794	-0.006758
23890	13727136	-0.002704	0.039494	-9.823249	-0.010206	0.003245	0.000212
23891	13727161	-0.018442	0.046043	-9.831791	-0.006501	0.003169	-0.006017
23892	13727186	-0.004655	0.035081	-9.816049	-0.008652	-0.003645	-0.002523
23893	13727211	0.007237	0.045031	-9.837193	-0.005068	-0.001647	-0.002968
23894	13727236	-0.007168	0.046262	-9.808838	-0.004958	0.001337	-0.000773
23895	13727261	-0.011487	0.048266	-9.816969	-0.005269	-0.002736	0.002930
23896	13727286	-0.004301	0.035595	-9.790158	-0.005548	0.001578	-0.002308
23897	13727311	-0.018257	0.052713	-9.800153	-0.007021	0.001483	-0.005771
23898	13727336	-0.010966	0.046757	-9.810262	-0.008129	0.002709	0.002451
23899	13727361	0.012710	0.016795	-9.816605	-0.007692	-0.001357	0.000636
23900	13727386	0.024207	0.018028	-9.829128	-0.004517	-0.002860	-0.002657
23901	13727411	-0.033244	0.043873	-9.828365	-0.003082	-0.001547	-0.004064
23902	13727436	-0.047059	0.055333	-9.844584	-0.002755	0.002405	-0.002821
23903	13727461	-0.025627	0.045884	-9.831762	-0.001712	-0.002298	-0.003044
23904	13727486	-0.039037	0.042200	-9.814912	-0.004600	-0.002010	0.000429
23905	13727511	-0.016558	0.011911	-9.835142	-0.001547	0.002690	-0.002310
23906	13727536	-0.031101	0.018180	-9.822613	-0.003400	-0.000954	0.003967
23907	13727561	-0.029447	0.034296	-9.816878	-0.007015	-0.004709	-0.000924
23908	13727586	-0.038357	0.035015	-9.840798	-0.004752	-0.003438	-0.000218
23909	13727611	0.004388	0.027768	-9.799308	-0.004292	-0.001892	-0.004579
23910	13727636	-0.028499	0.036741	-9.816877	-0.010017	-0.003223	-0.005846
23911	13727661	-0.003501	0.017946	-9.816038	-0.003624	-0.002517	0.000036
23912	13727686	-0.000605	0.022836	-9.822285	-0.001983	0.000356	-0.000915
23913	13727711	-0.023585	0.026763	-9.818345	-0.003168	-0.002901	-0.003684
23914	13727736	-0.014575	0.038333	-9.824133	-0.003448	0.004072	-0.003774
23915	13727761	-0.035835	0.048095	-9.801018	0.002412	0.001208	-0.000980
23916	13727786	-0.000973	0.038101	-9.796405	-0.002758	0.000668	-0.000262
23917	13727811	-0.001108	0.052504	-9.806477	-0.006481	0.000525	-0.002696
23918	13727836	-0.017531	0.027484	-9.796804	-0.005838	-0.001258	0.001524
23919	13727861	-0.010081	0.053659	-9.828477	-0.005917	-0.004487	0.004590
23920	13727886	-0.003427	0.054570	-9.820848	-0.004922	0.000496	0.001857
23921	13727911	-0.019160	0.043078	-9.796804	-0.003457	-0.001603	0.000691
23922	13727936	-0.011934	0.037134	-9.805942	-0.002949	-0.003473	0.000609
23923	13727961	-0.013824	0.034616	-9.794432	-0.007230	-0.002003	-0.003159
23924	13727986	-0.020039	0.019537	-9.838486	-0.003810	-0.004846	0.000729
23925	13728011	-0.013092	0.030403	-9.828461	-0.006978	0.000134	-0.003012
23926	13728036	-0.010226	0.033395	-9.833269	-0.010110	0.000344	-0.000054
23927	13728061	-0.041749	0.070665	-9.813945	-0.011343	0.000638	-0.000373
23928	13728086	-0.025042	0.072994	-9.829370	-0.008088	-0.001046	-0.000711
23929	13728111	-0.015894	0.058065	-9.811199	-0.004315	-0.000650	0.002229
23930	13728136	-0.010577	0.024120	-9.823674	-0.001116	0.005475	-0.000313
23931	13728161	-0.015563	0.031973	-9.811193	-0.004190	0.001217	-0.001672
23932	13728186	-0.019107	0.054060	-9.834183	-0.000928	-0.002800	-0.001571
23933	13728211	-0.020755	0.028045	-9.811157	0.000702	0.000463	-0.002328
23934	13728236	-0.021210	0.034096	-9.828907	-0.003745	-0.000842	-0.002779
23935	13728261	-0.011749	0.036948	-9.827995	-0.001407	-0.001504	0.001645
23936	13728286	0.002695	0.027810	-9.832371	-0.006007	0.001760	-0.002688
23937	13728311	0.009868	0.020751	-9.828096	-0.007145	-0.002784	-0.003357
23938	13728336	-0.013422	0.017569	-9.828461	-0.004038	-0.001886	-0.003615
23939	13728361	0.010535	0.030271	-9.803188	-0.003572	-0.002326	-0.002590
23940	13728386	-0.004462	0.033851	-9.833776	-0.002950	0.005190	0.003351
23941	13728411	-0.021519	0.061160	-9.829860	-0.007282	-0.000067	-0.002120
23942	13728436	-0.032020	0.050723	-9.810638	-0.003634	-0.000261	-0.002317
23943	13728461	-0.042259	0.041547	-9.839343	-0.002527	-0.004832	-0.001386
23944	13728486	-0.020457	0.041078	-9.819799	-0.003825	-0.002201	-0.000788
23945	13728511	-0.020601	0.045313	-9.790081	-0.001298	0.002417	-0.009048
23946	13728536	-0.002768	0.049529	-9.831882	-0.004025	0.001861	-0.004943
23947	13728561	0.007550	0.005180	-9.810823	-0.001718	-0.004430	-0.003380
23948	13728586	-0.028464	0.032368	-9.816402	-0.004010	-0.002524	-0.001432
23949	13728611	-0.027977	0.034304	-9.819281	-0.002018	-0.003077	-0.004140
23950	13728636	-0.029362	0.030597	-9.822153	-0.007124	-0.004901	0.002922
23951	13728661	-0.042060	0.030531	-9.832144	-0.004147	0.004722	0.005020
23952	13728686	-0.032330	0.035686	-9.816389	-0.007790	-0.006339	0.000224
23953	13728711	-0.030307	0.039137	-9.825504	-0.004880	0.000820	-0.002311
23954	13728736	-0.067783	0.064046	-9.838740	-0.006115	-0.002697	-0.001808
23955	13728761	-0.030155	0.017846	-9.828377	-0.004886	-0.005390	-0.002922
23956	13728786	-0.006929	0.030276	-9.817469	-0.005710	0.000609	-0.001162
23957	13728811	-0.044193	0.042440	-9.834522	-0.003940	-0.002262	0.002545
23958	13728836	-0.028700	0.057504	-9.815447	-0.005963	0.000732	-0.002120
23959	13728861	-0.012086	0.026602	-9.826541	-0.008047	-0.000401	-0.002696
23960	13728886	-0.023524	0.035087	-9.835112	-0.004536	0.001784	-0.006351
23961	13728911	-0.019811	0.032159	-9.824109	-0.007147	-0.002848	-0.005597
23962	13728936	-0.018355	0.030155	-9.818375	-0.004423	0.000837	0.003137
23963	13728961	-0.000102	0.005417	-9.801680	-0.000916	-0.003183	-0.001255
23964	13728986	-0.014069	0.033777	-9.831810	-0.006987	0.000648	-0.000383
23965	13729011	-0.015087	0.038295	-9.821737	-0.004102	0.000241	-0.006299
23966	13729036	-0.002919	0.045879	-9.811258	-0.003922	-0.003304	-0.002915
23967	13729061	-0.004777	0.040585	-9.805507	-0.005843	-0.001332	-0.002645
23968	13729086	0.020069	0.034717	-9.808493	-0.002071	0.000733	-0.002769
23969	13729111	-0.002910	0.047522	-9.821815	-0.005303	-0.004426	-0.003430
23970	13729136	0.023014	0.045747	-9.841114	-0.005588	0.000998	0.001021
23971	13729161	-0.018807	0.029252	-9.820282	-0.005282	-0.000548	-0.001618
23972	13729186	-0.018434	0.040325	-9.831309	-0.006157	-0.001399	-0.001229
23973	13729211	-0.009354	0.033519	-9.815062	-0.006221	0.003062	0.001998
23974	13729236	-0.005848	0.035555	-9.850061	-0.004156	-0.000013	-0.004116
23975	13729261	0.000254	0.038417	-9.848177	-0.004932	-0.001766	-0.001298
23976	13729286	0.003330	0.016483	-9.837162	-0.002778	-0.003216	-0.001511
23977	13729311	-0.005954	0.030760	-9.754210	-0.006536	-0.001934	-0.005659
23978	13729336	-0.025588	0.021076	-9.786219	-0.005604	-0.000486	-0.002062
23979	13729361	-0.026309	0.021229	-9.828872	-0.005715	-0.001194	0.000116
23980	13729386	-0.021459	0.049528	-9.816915	-0.004704	0.001666	-0.000066
23981	13729411	-0.041966	0.067328	-9.851801	-0.000183	0.000066	-0.000469
23982	13729436	-0.033896	0.063663	-9.849928	-0.005047	-0.004087	0.000805
23983	13729461	-0.010876	0.009069	-9.829903	-0.005727	-0.000881	-0.002326
23984	13729486	-0.016852	0.051206	-9.794890	-0.005841	0.002867	-0.002874
23985	13729511	-0.024002	0.016672	-9.808266	-0.004630	-0.003119	-0.002013
23986	13729536	-0.030728	0.041920	-9.761268	-0.003667	0.003099	-0.001727
23987	13729561	-0.050553	0.041802	-9.708447	-0.003535	0.004843	-0.004856
23988	13729586	-0.007604	0.027642	-9.861565	-0.004745	0.000566	-0.001030
23989	13729611	0.004385	0.015257	-9.852022	-0.003329	-0.001538	0.001837
23990	13729636	-0.033938	0.021171	-9.832191	-0.006291	-0.005546	-0.003305
23991	13729661	-0.051844	0.056739	-9.849358	-0.001051	-0.000930	-0.003035
23992	13729686	-0.032043	0.058410	-9.812556	-0.007433	0.002711	-0.001784
23993	13729711	-0.026693	0.034516	-9.797238	-0.006548	-0.003484	-0.005409
23994	13729736	-0.004383	0.020933	-9.825140	-0.002176	0.000416	-0.000529
23995	13729761	-0.029724	0.036882	-9.835559	-0.000198	0.002709	-0.001858
23996	13729786	-0.021984	0.050339	-9.743588	-0.004759	-0.002992	-0.001369
23997	13729811	-0.028802	0.020775	-9.803450	-0.004241	0.000694	-0.004373
23998	13729836	-0.026046	0.032413	-9.820247	0.000004	-0.004070	-0.001650
23999	13729861	-0.005926	0.055819	-9.807406	-0.007518	-0.002716	0.000568
24000	13729886	0.003457	0.039943	-9.820872	-0.004694	0.001207	0.000840
24001	13729911	0.011978	0.027502	-9.864532	-0.007762	0.000623	-0.005376
24002	13729936	0.006833	0.017971	-9.870249	-0.004587	-0.002812	-0.006297
24003	13729961	0.020779	0.033008	-9.849721	-0.004570	-0.005057	-0.000347
24004	13729986	-0.013262	0.041291	-9.825592	-0.006688	-0.002909	-0.002828
24005	13730011	-0.015447	0.020050	-9.806871	-0.004809	0.000820	-0.000243
24006	13730036	-0.012078	0.016880	-9.811205	-0.006306	-0.000571	0.000009
24007	13730061	-0.012592	0.037195	-9.842372	-0.002240	0.000340	-0.000900
24008	13730086	-0.004551	0.028954	-9.820837	-0.004789	-0.002290	-0.003469
24009	13730111	-0.022550	0.031016	-9.845191	-0.004007	-0.002471	-0.000329
24010	13730136	-0.006597	0.051162	-9.845762	-0.007874	-0.003567	0.001019
24011	13730161	-0.011484	0.046631	-9.803545	-0.004478	0.002301	-0.004022
24012	13730186	-0.002105	0.049422	-9.792095	-0.005277	-0.000750	-0.003335
24013	13730211	-0.040018	0.045396	-9.809155	-0.004664	0.002237	-0.002353
24014	13730236	-0.013671	0.029698	-9.813118	-0.005214	-0.002813	-0.000972
24015	13730261	-0.036374	0.067018	-9.824037	-0.005075	0.002804	-0.006324
24016	13730286	-0.027641	0.055758	-9.825510	-0.004759	0.003538	-0.000165
24017	13730311	-0.012770	0.016248	-9.861535	-0.008716	-0.005917	-0.003351
24018	13730336	-0.039419	0.048704	-9.840309	-0.003208	0.000647	-0.002234
24019	13730361	-0.026898	0.065705	-9.821688	-0.005955	-0.001606	-0.003015
24020	13730386	-0.014108	0.045405	-9.850037	-0.005232	-0.002164	0.000122
24021	13730411	-0.035123	0.061806	-9.791451	-0.003727	0.000830	-0.002873
24022	13730436	-0.044433	0.055725	-9.810084	-0.000013	0.001089	-0.001413
24023	13730461	-0.039298	0.056405	-9.813474	-0.006878	-0.005107	-0.003155
24024	13730486	-0.036660	0.049098	-9.830260	-0.003974	-0.002033	-0.009115
24025	13730511	-0.026884	0.025812	-9.818321	-0.006227	0.000651	-0.005567
24026	13730536	-0.048026	0.038396	-9.819662	-0.007500	-0.003499	-0.002503
24027	13730561	-0.010243	0.030033	-9.830873	-0.009397	-0.004704	-0.006613
24028	13730586	-0.012392	0.032831	-9.803545	-0.003925	-0.007313	-0.002855
24029	13730611	-0.022203	0.024751	-9.809244	-0.002080	-0.002688	-0.001496
24030	13730636	-0.025744	0.014685	-9.831751	-0.008425	-0.001006	-0.006017
24031	13730661	-0.009846	0.030125	-9.808826	-0.007108	0.001991	-0.006902
24032	13730686	-0.016968	0.026622	-9.807348	-0.001584	-0.000431	-0.005078
24033	13730711	-0.029177	0.035320	-9.854263	-0.004780	-0.000483	-0.003138
24034	13730736	0.008073	0.007483	-9.805083	-0.005224	0.001572	-0.004417
24035	13730761	-0.021819	0.044660	-9.836567	-0.004315	-0.003056	-0.001873
24036	13730786	0.007521	0.023101	-9.829527	-0.007699	-0.000781	0.002505
24037	13730811	-0.012764	0.011688	-9.845233	-0.005572	-0.001790	-0.002119
24038	13730836	-0.001104	0.015081	-9.813166	-0.003676	-0.002982	-0.002389
24039	13730861	0.007943	0.020963	-9.815621	-0.005586	0.001130	0.001037
24040	13730886	0.028599	0.004503	-9.810930	-0.003248	0.001743	-0.002241
24041	13730911	0.015414	0.019846	-9.798402	-0.007211	-0.002655	-0.003341
24042	13730936	-0.004579	0.040437	-9.823709	-0.008552	0.005789	-0.000982
24043	13730961	-0.034274	0.043769	-9.822128	-0.006875	-0.002970	-0.002116
24044	13730986	-0.003656	0.020109	-9.862542	-0.005007	0.000870	-0.001857
24045	13731011	-0.036901	0.025795	-9.825951	-0.005023	-0.003138	-0.003985
24046	13731036	-0.003062	0.021103	-9.801674	-0.006203	0.002478	0.002007
24047	13731061	-0.004977	0.021671	-9.812194	-0.001419	-0.000995	0.001206
24048	13731086	-0.021754	0.034467	-9.821230	-0.007662	-0.000399	-0.001653
24049	13731111	-0.016854	0.016211	-9.805912	-0.005047	-0.002101	-0.003663
24050	13731136	-0.032156	0.031072	-9.821170	-0.011168	0.001478	-0.000031
24051	13731161	-0.030643	0.063389	-9.827421	-0.008225	-0.000271	0.003543
24052	13731186	-0.036525	0.055023	-9.785212	-0.002775	-0.002898	-0.002259
24053	13731211	-0.019378	0.016849	-9.849506	-0.004566	0.005543	0.001062
24054	13731236	-0.030129	0.029069	-9.846597	-0.008227	-0.002863	-0.000833
24055	13731261	-0.030777	0.062456	-9.800577	-0.003503	0.002065	0.000273
24056	13731286	-0.014673	0.039153	-9.812164	-0.007236	0.002714	0.002012
24057	13731311	-0.028030	0.018340	-9.857618	-0.006783	-0.002071	-0.002886
24058	13731336	-0.011413	0.024948	-9.783894	-0.004788	-0.001894	0.000572
24059	13731361	-0.018264	0.032218	-9.769953	0.000422	-0.004449	0.002658
24060	13731386	-0.018156	0.025468	-9.918535	0.001480	0.000216	-0.001164
24061	13731411	-0.023812	0.043594	-9.803003	-0.002143	0.003903	0.002265
24062	13731436	0.009749	0.032035	-9.826183	-0.001620	-0.000611	0.003387
24063	13731461	0.000401	0.039446	-9.883654	-0.004099	-0.003563	0.000882
24064	13731486	-0.023887	0.033870	-9.789580	0.000139	-0.003551	0.003949
24065	13731511	-0.002799	0.037994	-9.730732	-0.001812	-0.000875	-0.000393
24066	13731536	-0.003418	0.027849	-9.841454	-0.003934	0.001347	-0.000565
24067	13731561	0.002902	0.024632	-9.783488	-0.002095	0.000222	0.000896
24068	13731586	0.015823	0.009312	-9.761977	-0.003980	0.000635	-0.002046
24069	13731611	-0.003860	-0.004950	-9.868759	-0.003974	-0.001825	-0.002827
24070	13731636	-0.013968	0.020655	-9.816467	-0.003985	0.000624	-0.005195
24071	13731661	-0.008760	0.024133	-9.821290	-0.001903	-0.002359	-0.000916
24072	13731686	-0.011883	0.017960	-9.851944	-0.007069	-0.003301	-0.003533
24073	13731711	-0.008816	0.029040	-9.826565	-0.008281	-0.000994	-0.000310
24074	13731736	-0.003765	0.050855	-9.761888	-0.005388	-0.002873	0.002876
24075	13731761	-0.007078	0.036515	-9.819383	-0.006135	-0.003995	-0.001232
24076	13731786	-0.014586	0.028562	-9.804487	-0.005555	0.002161	-0.001715
24077	13731811	-0.023546	0.029694	-9.826004	-0.003131	0.000384	-0.001733
24078	13731836	-0.020753	0.035458	-9.826029	-0.004347	0.000302	-0.001857
24079	13731861	-0.007866	0.033196	-9.824169	-0.000556	0.002247	0.002384
24080	13731886	-0.017528	0.015857	-9.842813	-0.005175	0.002033	-0.004025
24081	13731911	-0.014888	0.048558	-9.803538	-0.009406	-0.002120	-0.005701
24082	13731936	-0.060182	0.045783	-9.783648	-0.009058	0.001250	-0.003886
24083	13731961	-0.030858	0.026776	-9.793377	-0.003491	0.001216	-0.006145
24084	13731986	-0.037564	0.045044	-9.817308	-0.002721	0.003624	-0.002870
24085	13732011	-0.006568	0.045745	-9.836161	-0.003088	-0.001423	-0.002764
24086	13732036	-0.009649	0.020360	-9.823197	-0.003619	-0.002387	0.001657
24087	13732061	-0.040131	0.060929	-9.825932	-0.007342	0.001737	-0.001255
24088	13732086	-0.028078	0.046845	-9.831266	-0.007579	-0.003052	-0.002697
24089	13732111	-0.044122	0.043281	-9.833580	0.000423	0.003758	0.003348
24090	13732136	-0.031651	0.035698	-9.851854	-0.004144	-0.006546	-0.002979
24091	13732161	-0.026769	0.011972	-9.811610	-0.007938	-0.001961	-0.004549
24092	13732186	-0.006040	0.024425	-9.804535	-0.006752	-0.002773	-0.000584
24093	13732211	-0.021407	0.037233	-9.811645	-0.010392	-0.005232	-0.002636
24094	13732236	-0.013787	0.032240	-9.794909	-0.006790	-0.001478	-0.000127
24095	13732261	-0.005503	0.070818	-9.828995	-0.006871	-0.001033	-0.001918
24096	13732286	0.002484	0.034663	-9.819436	-0.001349	-0.003918	-0.005926
24097	13732311	0.040167	0.038136	-9.828245	-0.002235	-0.001720	-0.000213
24098	13732336	-0.030900	0.042184	-9.808725	-0.002743	0.004338	-0.000040
24099	13732361	0.015001	0.027488	-9.833879	-0.004050	-0.005378	-0.002018
24100	13732386	0.022807	0.011707	-9.820962	-0.004122	-0.003318	-0.005855
24101	13732411	0.035878	0.000048	-9.826774	-0.000699	-0.000164	-0.006555
24102	13732436	-0.002848	0.046609	-9.826118	-0.002843	-0.003096	-0.003868
24103	13732461	0.008608	0.034999	-9.804606	-0.003874	-0.002402	0.000563
24104	13732486	0.001261	0.030576	-9.831405	-0.001909	0.000152	-0.001675
24105	13732511	-0.012613	0.031678	-9.819346	-0.005522	0.003128	-0.000682
24106	13732536	-0.008731	0.031156	-9.843826	-0.005129	-0.003329	-0.000657
24107	13732561	-0.005314	0.028371	-9.847194	-0.005035	-0.000152	0.001034
24108	13732586	-0.030310	0.037729	-9.826458	-0.005069	0.000939	0.000077
24109	13732611	-0.040481	0.043054	-9.810108	-0.003964	0.000116	-0.003718
24110	13732636	-0.027631	0.061697	-9.839892	-0.004375	0.003016	-0.003506
24111	13732661	-0.049616	0.058437	-9.831160	-0.004165	-0.001243	-0.000386
24112	13732686	-0.035726	0.044788	-9.826916	-0.004421	-0.003836	-0.003155
24113	13732711	-0.045296	0.047923	-9.822553	-0.005138	-0.004943	0.001201
24114	13732736	-0.051544	0.063806	-9.842656	-0.006028	-0.003545	-0.003469
24115	13732761	-0.050604	0.057838	-9.819172	-0.010094	0.000018	0.001173
24116	13732786	-0.038568	0.039307	-9.812522	-0.004308	-0.001578	-0.006606
24117	13732811	-0.039499	0.041239	-9.817785	-0.003599	-0.001170	-0.001986
24118	13732836	-0.051227	0.029308	-9.824437	0.000489	-0.002775	0.000684
24119	13732861	-0.040772	0.036679	-9.831196	-0.002603	-0.000316	-0.001921
24120	13732886	-0.032383	0.036387	-9.802002	-0.004326	-0.000469	-0.001660
24121	13732911	-0.046069	0.036766	-9.809131	-0.003983	0.004633	-0.004844
24122	13732936	-0.021394	0.030747	-9.797257	-0.004752	-0.003456	-0.004950
24123	13732961	-0.021277	0.036878	-9.824103	-0.004636	0.001274	-0.000949
24124	13732986	0.008524	0.009147	-9.817529	-0.005752	-0.002176	-0.001158
24125	13733011	-0.009845	0.034228	-9.828955	-0.003774	-0.006218	-0.005096
24126	13733036	0.004979	0.017432	-9.802670	-0.007452	-0.003314	-0.005394
24127	13733061	0.005724	0.005848	-9.821356	-0.005133	-0.003324	0.000051
24128	13733086	0.014418	0.033872	-9.816617	-0.006971	-0.000003	-0.003067
24129	13733111	0.005177	0.009439	-9.811295	-0.003552	-0.002784	-0.002454
24130	13733136	0.013224	0.016446	-9.820927	-0.010470	-0.000586	-0.002034
24131	13733161	-0.008667	0.013008	-9.807873	-0.004227	0.000708	0.002503
24132	13733186	-0.010984	0.022914	-9.839493	-0.002031	0.001964	0.000325
24133	13733211	-0.011435	0.018657	-9.841400	0.004077	-0.001298	-0.004582
24134	13733236	-0.025076	0.045700	-9.846622	-0.005132	-0.000995	0.001930
24135	13733261	0.000544	0.032635	-9.808874	-0.005896	-0.003341	0.000565
24136	13733286	-0.029688	0.031732	-9.839392	-0.001392	0.001970	-0.001723
24137	13733311	-0.004504	0.036337	-9.840971	-0.002255	-0.001343	-0.003858
24138	13733336	-0.018656	0.053905	-9.821725	-0.002593	-0.000241	0.000516
24139	13733361	-0.017472	0.043368	-9.842346	-0.008206	-0.002988	0.001861
24140	13733386	-0.010372	0.048512	-9.831351	-0.006054	0.003169	-0.007860
24141	13733411	-0.040257	0.037590	-9.825921	-0.007664	0.004128	0.000548
24142	13733436	-0.023201	0.042213	-9.835124	-0.004403	-0.001821	0.002238
24143	13733461	-0.032330	0.051470	-9.834110	0.003335	0.000243	-0.003538
24144	13733486	-0.015311	0.062737	-9.830849	-0.009841	0.003953	-0.002782
24145	13733511	-0.030774	0.037189	-9.824544	-0.003240	0.001483	-0.003389
24146	13733536	-0.014884	0.058442	-9.834210	-0.005333	-0.005344	-0.003359
24147	13733561	-0.033303	0.056817	-9.777075	-0.002742	-0.003269	0.005825
24148	13733586	-0.028434	0.051943	-9.852348	-0.008120	-0.000091	-0.003259
24149	13733611	-0.046904	0.031871	-9.829253	-0.005864	-0.000763	-0.005448
24150	13733636	-0.037108	0.036396	-9.803897	-0.007874	-0.000158	-0.006011
24151	13733661	-0.053096	0.037006	-9.829694	-0.004013	0.004125	-0.001384
24152	13733686	-0.008948	0.038851	-9.817457	-0.006849	0.000192	-0.003001
24153	13733711	-0.027192	0.026935	-9.769434	-0.004613	0.000492	-0.001848
24154	13733736	-0.035395	0.013623	-9.812045	0.003736	-0.002727	-0.004457
24155	13733761	-0.027816	0.032719	-9.837490	-0.005396	-0.000933	0.002949
24156	13733786	-0.014872	0.014656	-9.827489	-0.002652	-0.007038	-0.002667
24157	13733811	-0.007685	0.011185	-9.808344	-0.005502	-0.000311	-0.008659
24158	13733836	-0.024059	0.040283	-9.832722	-0.005925	0.003767	0.000478
24159	13733861	-0.011029	0.025853	-9.840441	-0.005186	0.000621	0.002448
24160	13733886	0.003253	0.005813	-9.793544	-0.002238	0.002608	0.000907
24161	13733911	-0.011644	0.014297	-9.793472	-0.009406	-0.000115	-0.005503
24162	13733936	0.011157	-0.003134	-9.823293	-0.002736	0.001881	-0.001599
24163	13733961	0.000882	0.038159	-9.796900	-0.004859	-0.004368	-0.006180
24164	13733986	-0.008711	0.051489	-9.812188	-0.002517	-0.000824	-0.000709
24165	13734011	0.009333	0.030257	-9.832883	-0.004928	-0.001509	0.001277
24166	13734036	-0.008498	0.040779	-9.818906	-0.005962	-0.001600	-0.004104
24167	13734061	-0.010484	0.046276	-9.812653	-0.002135	0.001247	-0.000383
24168	13734086	-0.005638	0.044190	-9.825152	-0.005072	0.002478	-0.006841
24169	13734111	0.004079	0.045172	-9.787804	-0.006011	-0.004058	-0.003286
24170	13734136	-0.009137	0.045185	-9.798293	-0.007968	-0.000729	-0.001150
24171	13734161	-0.034374	0.059111	-9.830753	-0.006109	0.001702	0.000601
24172	13734186	-0.021451	0.050569	-9.823627	-0.005360	0.002429	0.002009
24173	13734211	-0.010785	0.026678	-9.802586	-0.005080	0.001130	-0.001977
24174	13734236	-0.036475	0.039174	-9.835058	-0.003237	0.001356	-0.003512
24175	13734261	-0.016271	0.054893	-9.823174	-0.001106	0.001010	-0.001217
24176	13734286	-0.029661	0.052612	-9.805374	-0.006066	-0.000054	-0.003199
24177	13734311	-0.012151	0.028902	-9.821754	-0.007008	-0.000642	0.000779
24178	13734336	-0.010154	0.023204	-9.823686	-0.004138	-0.000601	-0.004810
24179	13734361	-0.012497	0.043130	-9.790600	-0.006090	0.000794	0.001101
24180	13734386	-0.017329	0.026826	-9.817886	-0.005759	0.002608	-0.001581
24181	13734411	-0.016915	0.034153	-9.828436	-0.006522	0.002466	0.000089
24182	13734436	-0.010288	0.025878	-9.811229	-0.003050	-0.002451	-0.002640
24183	13734461	-0.022271	0.027010	-9.800613	-0.006451	-0.002061	-0.001736
24184	13734486	-0.027389	0.067656	-9.825037	-0.006509	-0.002649	-0.005773
24185	13734511	-0.024706	0.030277	-9.797728	-0.006735	-0.001428	-0.005002
24186	13734536	-0.019518	0.039360	-9.798717	-0.006701	0.002074	-0.001267
24187	13734561	-0.010654	0.019654	-9.806895	-0.005205	0.003526	0.001757
24188	13734586	-0.031375	0.038372	-9.808236	-0.004832	-0.000675	-0.003463
24189	13734611	-0.029554	0.039249	-9.802503	-0.004125	-0.002997	-0.005081
24190	13734636	-0.002680	0.030304	-9.818440	0.000934	-0.001092	-0.004125
24191	13734661	-0.020096	0.034317	-9.844244	-0.005452	0.003001	-0.000428
24192	13734686	-0.023430	0.027700	-9.849012	-0.005132	-0.000732	0.004815
24193	13734711	-0.011828	-0.001127	-9.815997	-0.003877	-0.000590	-0.001156
24194	13734736	0.001553	0.036494	-9.816557	-0.001372	0.001591	0.000836
24195	13734761	-0.033208	0.063540	-9.806334	-0.008805	-0.004224	0.002688
24196	13734786	-0.008099	0.043494	-9.815067	-0.002678	-0.001658	0.003262
24197	13734811	-0.013484	0.049035	-9.806893	-0.006998	-0.003435	-0.005972
24198	13734836	-0.010285	0.024390	-9.807867	-0.004624	-0.001320	-0.002956
24199	13734861	-0.008531	0.048480	-9.831852	-0.002797	-0.002451	-0.003988
24200	13734886	-0.016958	0.042288	-9.833717	-0.005768	0.002405	-0.003509
24201	13734911	-0.034010	0.037491	-9.839861	-0.011614	0.001211	-0.000934
24202	13734936	-0.023193	0.043628	-9.829365	-0.010817	0.002387	-0.002916
24203	13734961	-0.025291	0.049982	-9.818815	-0.005220	-0.002022	0.005895
24204	13734986	-0.016370	0.064146	-9.832279	-0.009185	-0.002299	0.001931
24205	13735011	-0.022608	0.060050	-9.820275	-0.006500	-0.002906	-0.003274
24206	13735036	-0.005054	0.031253	-9.817469	-0.003482	-0.000706	-0.000007
24207	13735061	0.002851	0.041740	-9.815121	-0.003588	-0.003564	-0.001815
24208	13735086	-0.017052	0.039643	-9.815496	-0.005122	0.000285	-0.005706
24209	13735111	-0.021356	0.044541	-9.830343	-0.005272	-0.000940	-0.001279
24210	13735136	-0.017697	0.014526	-9.815007	-0.007771	0.001214	-0.000301
24211	13735161	-0.030044	0.052378	-9.821670	-0.007698	0.002562	-0.005935
24212	13735186	-0.004051	0.020310	-9.814125	-0.004725	-0.004029	0.000174
24213	13735211	-0.035887	0.026780	-9.827858	-0.007273	-0.000195	0.001739
24214	13735236	-0.012433	0.010917	-9.823674	-0.007178	-0.003621	-0.001740
24215	13735261	-0.013697	0.038356	-9.818392	-0.009000	-0.000489	-0.002617
24216	13735286	-0.007015	0.030500	-9.805000	0.000724	0.001486	-0.004689
24217	13735311	-0.012757	0.037796	-9.816003	-0.006588	0.000402	0.001229
24218	13735336	-0.007872	0.028429	-9.819376	-0.005490	-0.000170	-0.001277
24219	13735361	-0.003055	0.019129	-9.797353	-0.004688	0.003015	-0.001132
24220	13735386	-0.011496	0.011709	-9.817433	-0.002791	-0.000644	-0.002700
24221	13735411	0.011432	0.015147	-9.837687	-0.003454	-0.001483	0.001533
24222	13735436	0.013586	0.023361	-9.812784	-0.006391	0.000340	0.001487
24223	13735461	-0.028434	0.048059	-9.849483	-0.002666	-0.002511	-0.002514
24224	13735486	0.000331	0.026331	-9.830451	-0.006703	0.000142	0.002892
24225	13735511	0.007118	0.012027	-9.819454	-0.011621	-0.000668	-0.004095
24226	13735536	-0.003544	0.023176	-9.817004	-0.003727	-0.001104	-0.000325
24227	13735561	0.030229	-0.000772	-9.834421	-0.004482	0.000633	0.002567
24228	13735586	-0.011291	0.038022	-9.827994	-0.007777	-0.002989	-0.003658
24229	13735611	-0.030847	0.045883	-9.831719	-0.006773	0.002332	0.001755
24230	13735636	-0.015042	0.024497	-9.815037	-0.009218	-0.003788	-0.001094
24231	13735661	-0.011731	0.032075	-9.815043	-0.002503	0.000463	-0.004680
24232	13735686	-0.014612	0.036866	-9.823179	-0.000013	0.001095	0.000706
24233	13735711	-0.032837	0.054442	-9.837466	-0.003871	0.001210	-0.004412
24234	13735736	-0.022826	0.047336	-9.826982	-0.006245	-0.000374	0.000586
24235	13735761	-0.016521	0.064436	-9.798259	-0.000121	0.002512	-0.001211
24236	13735786	-0.037465	0.037095	-9.822583	-0.004247	0.001542	0.002195
24237	13735811	-0.027146	0.039034	-9.814013	-0.005043	-0.003508	0.005630
24238	13735836	0.000964	0.043670	-9.821815	-0.002579	-0.002755	0.002618
24239	13735861	-0.040407	0.036864	-9.806752	-0.006047	0.001174	-0.004087
24240	13735886	-0.043543	0.019766	-9.814405	-0.000829	-0.004430	-0.008489
24241	13735911	-0.046865	0.055303	-9.811992	-0.003716	-0.001822	-0.003722
24242	13735936	-0.019858	0.034473	-9.824115	-0.003539	-0.003305	-0.002900
24243	13735961	-0.033167	0.027045	-9.806799	-0.010318	-0.001346	-0.000241
24244	13735986	-0.038448	0.033273	-9.821634	-0.004923	-0.004233	-0.004952
24245	13736011	-0.013190	0.033985	-9.816957	-0.003813	0.001012	-0.007877
24246	13736036	-0.049184	0.054453	-9.814869	-0.008918	-0.001132	-0.001527
24247	13736061	-0.031654	0.019955	-9.811592	-0.006294	-0.003089	-0.000200
24248	13736086	-0.038210	0.018977	-9.819221	-0.003126	-0.000136	-0.005518
24249	13736111	-0.014612	0.002331	-9.824127	-0.005849	0.001320	-0.000244
24250	13736136	-0.008225	0.017960	-9.816980	-0.007580	-0.000454	0.003664
24251	13736161	-0.012751	0.036807	-9.816480	-0.001280	0.000425	-0.001091
24252	13736186	-0.007943	0.040865	-9.828973	-0.003654	0.000373	-0.005326
24253	13736211	-0.002089	0.023413	-9.829956	-0.004154	-0.004220	-0.002329
24254	13736236	0.006661	0.018563	-9.841501	-0.007816	-0.002034	-0.007248
24255	13736261	0.009185	0.005027	-9.828085	-0.005682	0.001694	-0.005440
24256	13736286	-0.001331	0.034993	-9.807909	-0.007519	0.001611	0.001623
24257	13736311	-0.009913	0.017968	-9.846687	-0.009114	0.000726	-0.007422
24258	13736336	-0.021681	0.033104	-9.826016	-0.005338	0.000863	-0.004284
24259	13736361	-0.021590	0.057151	-9.817879	-0.006883	-0.002709	-0.001414
24260	13736386	-0.005652	0.050051	-9.832809	-0.010464	0.001159	-0.004463
24261	13736411	-0.040614	0.060824	-9.825456	-0.005004	0.000547	-0.003897
24262	13736436	-0.050556	0.055417	-9.820610	-0.005201	0.000998	-0.001723
24263	13736461	-0.010622	0.052927	-9.809308	-0.007449	-0.000975	-0.000440
24264	13736486	0.005230	0.040753	-9.809381	-0.005907	0.001316	0.001428
24265	13736511	-0.020159	0.055167	-9.813094	-0.001079	-0.001505	0.003384
24266	13736536	-0.010242	0.030939	-9.830874	-0.005247	-0.003721	-0.000785
24267	13736561	-0.033960	0.054578	-9.814464	-0.006002	-0.002310	-0.002886
24268	13736586	-0.022697	0.033375	-9.814519	-0.005434	0.000486	0.002252
24269	13736611	-0.023684	0.029555	-9.813547	-0.003774	-0.004016	-0.001815
24270	13736636	-0.018144	0.044349	-9.812139	-0.007924	-0.002414	-0.004357
24271	13736661	0.005508	0.021763	-9.808904	-0.002496	0.000268	-0.004558
24272	13736686	-0.007244	0.060018	-9.834729	-0.007378	-0.001502	-0.004098
24273	13736711	0.000212	0.044172	-9.851540	-0.004324	-0.000343	-0.000317
24274	13736736	-0.033550	0.065152	-9.825009	-0.002588	-0.000432	0.000834
24275	13736761	-0.022957	0.052760	-9.811634	-0.003818	-0.000140	-0.001797
24276	13736786	-0.029889	0.035555	-9.810162	-0.001758	0.001116	-0.005321
24277	13736811	-0.035166	0.048146	-9.827387	-0.005001	0.002943	-0.000103
24278	13736836	-0.014879	0.034112	-9.855771	-0.006565	-0.002973	-0.005330
24279	13736861	0.000294	0.022825	-9.816540	-0.008348	-0.001131	-0.005509
24280	13736886	-0.032064	0.022156	-9.829324	-0.010003	-0.003484	-0.003333
24281	13736911	-0.041384	0.014044	-9.839338	-0.002235	-0.001717	0.002365
24282	13736936	-0.027143	0.051485	-9.826475	-0.002381	0.003187	0.000337
24283	13736961	-0.015418	0.018712	-9.814543	-0.001788	-0.004050	-0.004385
24284	13736986	-0.018227	0.013108	-9.819323	-0.002471	-0.005096	-0.005805
24285	13737011	-0.018053	0.015615	-9.827953	-0.006014	0.004409	-0.002280
24286	13737036	-0.021548	0.008922	-9.797740	-0.005332	0.001198	0.000592
24287	13737061	-0.035372	0.013838	-9.821153	-0.003308	-0.006196	0.001571
24288	13737086	-0.005629	0.007293	-9.828013	-0.011557	0.001140	-0.004332
24289	13737111	-0.013441	0.014931	-9.810722	-0.005825	0.002412	-0.002800
24290	13737136	-0.020602	0.021201	-9.822184	-0.006077	-0.001796	-0.001736
24291	13737161	-0.013771	0.000721	-9.812635	-0.004585	-0.002277	0.001852
24292	13737186	-0.031755	0.036094	-9.814471	-0.005034	0.003518	-0.005235
24293	13737211	-0.016739	0.017556	-9.831799	-0.003743	-0.002983	-0.002642
24294	13737236	-0.001358	0.040494	-9.829962	-0.004071	-0.004345	0.000043
24295	13737261	-0.042349	0.050085	-9.835510	-0.006285	-0.001211	-0.000380
24296	13737286	-0.014524	0.031833	-9.828938	-0.007437	-0.001369	-0.002502
24297	13737311	-0.008968	0.044558	-9.824646	-0.000872	0.001591	-0.003201
24298	13737336	-0.055464	0.074162	-9.841203	-0.002736	-0.001994	-0.000139
24299	13737361	-0.004958	0.059812	-9.821795	-0.006023	-0.003804	-0.005463
24300	13737386	-0.029636	0.052309	-9.816874	-0.003889	-0.000007	-0.000891
24301	13737411	-0.034891	0.058527	-9.825967	-0.006831	-0.001867	0.000773
24302	13737436	-0.019625	0.054983	-9.827959	-0.004755	-0.003263	-0.003093
24303	13737461	-0.038073	0.080544	-9.810132	-0.003426	0.001550	0.000075
24304	13737486	0.003378	0.043716	-9.819436	-0.006381	-0.000314	-0.001918
24305	13737511	-0.002581	0.059555	-9.806949	-0.000878	0.001712	-0.004488
24306	13737536	0.007352	0.020748	-9.807950	0.000502	-0.003293	-0.001886
24307	13737561	0.001516	0.044761	-9.829015	-0.002351	-0.000377	-0.004369
24308	13737586	-0.031446	0.051618	-9.838438	-0.002669	-0.004318	-0.001116
24309	13737611	-0.005114	0.027788	-9.804535	-0.006807	-0.002904	0.000441
24310	13737636	-0.013814	0.038007	-9.802580	-0.002302	-0.001599	-0.001609
24311	13737661	-0.008371	0.012293	-9.789175	-0.005718	-0.003275	-0.003025
24312	13737686	-0.015392	0.023178	-9.823174	-0.007431	0.000176	-0.006083
24313	13737711	-0.042161	0.034713	-9.827834	-0.003602	0.001097	0.000586
24314	13737736	-0.013784	0.015722	-9.831810	-0.005268	0.001062	-0.001468
24315	13737761	-0.026275	0.013954	-9.816891	-0.006819	-0.002708	-0.002125
24316	13737786	-0.009764	0.016653	-9.795398	-0.005819	-0.000250	-0.006473
24317	13737811	-0.031882	0.040515	-9.824060	-0.004680	-0.005780	-0.004193
24318	13737836	-0.027800	0.017047	-9.801542	-0.008045	0.002187	0.001180
24319	13737861	-0.020844	0.023163	-9.794873	-0.006829	-0.002450	-0.001284
24320	13737886	0.006978	0.014268	-9.815609	-0.004321	-0.004672	0.000367
24321	13737911	-0.037196	0.010960	-9.819240	-0.003837	-0.001818	-0.001930
24322	13737936	-0.041040	0.007461	-9.810585	-0.004074	-0.002275	0.000757
24323	13737961	-0.014625	0.034134	-9.823177	-0.008906	-0.005519	0.000757
24324	13737986	-0.031206	0.066051	-9.818314	-0.004999	-0.001323	-0.000837
24325	13738011	-0.041455	0.045911	-9.817303	-0.000866	-0.002672	-0.002581
24326	13738036	0.000088	0.031230	-9.812713	-0.001341	-0.004168	-0.003560
24327	13738061	-0.007670	0.036710	-9.807396	-0.002411	-0.006047	0.002985
24328	13738086	-0.035692	0.048139	-9.828351	-0.007120	-0.002967	0.002626
24329	13738111	-0.016814	0.025113	-9.827482	-0.006147	0.000528	-0.002238
24330	13738136	-0.029186	0.054081	-9.810657	-0.005148	0.001785	0.001879
24331	13738161	-0.037758	0.059298	-9.816843	-0.003749	0.002004	0.003029
24332	13738186	-0.020564	0.060703	-9.832740	-0.002976	-0.000711	-0.003535
24333	13738211	-0.030808	0.085849	-9.843725	-0.002666	0.002015	-0.001398
24334	13738236	-0.041370	0.077278	-9.817773	-0.001472	-0.001383	0.001341
24335	13738261	-0.001713	0.039134	-9.836191	-0.002573	-0.001280	-0.002123
24336	13738286	-0.001910	0.043972	-9.805511	-0.007351	0.002325	-0.000873
24337	13738311	-0.015651	0.026353	-9.783387	-0.006893	0.003941	-0.000994
24338	13738336	-0.039631	0.052679	-9.818266	-0.005867	-0.000697	-0.004351
24339	13738361	0.001357	0.055647	-9.824711	-0.003652	-0.001754	-0.004119
24340	13738386	0.026665	0.007445	-9.816676	-0.006814	-0.000575	0.001478
24341	13738411	-0.025106	0.039719	-9.823603	-0.007483	0.000250	-0.002559
24342	13738436	-0.006648	0.012629	-9.841908	-0.006963	-0.004460	-0.002000
24343	13738461	-0.025944	0.035112	-9.840387	-0.004305	-0.003056	0.000246
24344	13738486	-0.034168	0.048740	-9.837937	-0.000799	0.003539	0.000018
24345	13738511	-0.017462	0.030037	-9.809261	-0.005700	0.000341	-0.004293
24346	13738536	-0.005345	0.010552	-9.797335	-0.005187	0.002487	-0.002100
24347	13738561	-0.007960	0.030185	-9.808350	-0.008073	-0.001568	-0.002435
24348	13738586	-0.015119	0.036280	-9.813124	-0.005528	0.001326	0.001681
24349	13738611	0.009564	-0.001475	-9.803640	-0.008172	-0.002544	-0.002444
24350	13738636	0.001816	0.005920	-9.797853	-0.005415	-0.000551	-0.002307
24351	13738661	-0.022103	0.049581	-9.793901	0.000666	0.000148	0.002368
24352	13738686	-0.004651	0.004286	-9.823227	-0.001472	0.002359	-0.002360
24353	13738711	-0.011594	0.028512	-9.828949	-0.004981	-0.000034	-0.004169
24354	13738736	0.008379	0.026419	-9.830481	-0.005199	-0.003459	-0.001682
24355	13738761	-0.044122	0.064394	-9.807698	-0.009871	0.000854	-0.000292
24356	13738786	-0.013980	0.029572	-9.841871	-0.002287	-0.002512	-0.004572
24357	13738811	-0.024133	0.033333	-9.817857	0.000633	0.001238	0.002371
24358	13738836	-0.011306	0.038970	-9.826557	-0.008510	-0.001441	0.003147
24359	13738861	-0.027203	0.054441	-9.829359	-0.006258	-0.002387	-0.004426
24360	13738886	-0.027939	0.077192	-9.833668	-0.004296	-0.001307	-0.000253
24361	13738911	-0.032621	0.056348	-9.807759	-0.003308	-0.002395	-0.003023
24362	13738936	-0.015634	0.034389	-9.811676	-0.005223	-0.002427	-0.001675
24363	13738961	-0.031921	0.038349	-9.804886	-0.006300	-0.002564	0.002755
24364	13738986	-0.041157	0.057994	-9.823047	-0.007735	-0.006290	-0.003418
24365	13739011	-0.029778	0.036426	-9.836531	-0.001760	-0.002624	-0.001748
24366	13739036	-0.007484	0.035116	-9.825134	-0.003758	-0.004269	-0.000727
24367	13739061	-0.045777	0.057601	-9.832619	-0.007966	-0.002466	0.002439
24368	13739086	-0.048523	0.041118	-9.814382	-0.007153	0.000267	0.003098
24369	13739111	-0.057124	0.053440	-9.850776	-0.005500	-0.004046	-0.001420
24370	13739136	-0.038777	0.025675	-9.823060	-0.003058	-0.000392	-0.003399
24371	13739161	-0.028932	0.029964	-9.814965	-0.004670	-0.006300	-0.006375
24372	13739186	-0.016243	0.022002	-9.839469	-0.006859	-0.001225	-0.000060
24373	13739211	-0.004258	0.020833	-9.844804	-0.007787	-0.000340	-0.002368
24374	13739236	-0.016903	0.030309	-9.824610	-0.007761	-0.001641	-0.007759
24375	13739261	-0.020253	0.033722	-9.834176	-0.004989	-0.001906	-0.003017
24376	13739286	-0.018178	0.016974	-9.825558	-0.004809	-0.001383	-0.000195
24377	13739311	-0.031343	0.033765	-9.817833	-0.003611	-0.004719	0.001004
24378	13739336	-0.033672	0.032730	-9.814936	-0.003941	-0.002263	0.001982
24379	13739361	-0.016016	0.033490	-9.815985	-0.005268	0.001192	-0.001016
24380	13739386	-0.014168	0.036896	-9.817428	-0.007798	0.000249	0.001363
24381	13739411	0.015694	0.009791	-9.824282	-0.004545	-0.001444	0.000444
24382	13739436	0.008962	0.014442	-9.825683	-0.003622	-0.004724	-0.002143
24383	13739461	-0.007643	0.038580	-9.803093	-0.003555	-0.002724	-0.004697
24384	13739486	0.002083	0.004530	-9.836679	-0.001471	0.002551	-0.000700
24385	13739511	0.034604	0.017858	-9.808093	-0.005378	0.000614	0.000387
24386	13739536	0.019309	-0.014674	-9.805602	-0.002705	0.003049	0.000073
24387	13739561	0.012765	0.023222	-9.833860	-0.005598	-0.002757	0.000690
24388	13739586	-0.002257	0.035913	-9.813654	-0.000308	0.001787	-0.005451
24389	13739611	-0.002311	0.038378	-9.815574	-0.003338	-0.001359	-0.003344
24390	13739636	-0.015286	0.009301	-9.818381	-0.001809	-0.003533	-0.005025
24391	13739661	-0.008460	0.042748	-9.824652	-0.005303	0.002095	-0.003701
24392	13739686	-0.015280	0.051790	-9.828930	-0.011879	-0.002344	0.001681
24393	13739711	0.002654	0.014640	-9.806967	-0.008550	-0.004557	-0.000654
24394	13739736	-0.032637	0.060149	-9.807759	-0.002515	-0.003028	-0.002386
24395	13739761	-0.025117	0.053266	-9.782391	-0.005494	-0.002176	-0.002953
24396	13739786	-0.041911	0.040143	-9.808194	-0.005807	-0.002302	-0.001349
24397	13739811	-0.015440	0.070122	-9.827018	-0.000398	0.002624	-0.006475
24398	13739836	-0.014328	0.055574	-9.831808	-0.006498	-0.000437	0.000587
24399	13739861	-0.027072	0.048305	-9.831750	-0.006352	0.002721	-0.003628
24400	13739886	-0.035461	0.059832	-9.822124	-0.001228	-0.005192	0.001258
24401	13739911	-0.050159	0.068500	-9.836905	-0.005683	-0.002241	-0.002633
24402	13739936	-0.031897	0.039293	-9.807759	-0.003704	-0.000075	-0.002880
24403	13739961	-0.013739	0.028578	-9.804016	-0.003324	-0.001939	-0.001670
24404	13739986	-0.030235	0.061167	-9.811127	-0.001276	-0.002041	-0.004373
24405	13740011	-0.034256	0.037373	-9.806782	-0.004914	0.000171	0.000910
24406	13740036	-0.025699	0.049288	-9.829842	-0.008766	-0.001836	-0.000250
24407	13740061	-0.033706	0.038540	-9.821170	-0.005081	-0.003138	-0.004181
24408	13740086	-0.015625	0.002620	-9.813094	-0.006689	0.003037	-0.005105
24409	13740111	0.001500	-0.003882	-9.805512	-0.007235	-0.000075	-0.005898
24410	13740136	0.001481	0.009665	-9.826136	-0.005224	0.001319	-0.001976
24411	13740161	0.003073	0.011100	-9.857297	-0.005160	-0.000346	0.001153
24412	13740186	-0.013460	0.011014	-9.806890	-0.000444	-0.001498	0.000562
24413	13740211	-0.009884	-0.002016	-9.819841	0.001518	-0.001535	-0.004390
24414	13740236	-0.020586	0.008374	-9.792471	-0.003858	0.003228	0.000019
24415	13740261	-0.002418	0.012306	-9.821796	0.000094	0.003019	-0.005703
24416	13740286	-0.019040	0.009370	-9.824598	-0.004143	-0.002530	-0.001100
24417	13740311	-0.022421	0.009336	-9.821224	-0.009063	-0.002813	-0.001922
24418	13740336	-0.011655	0.020665	-9.814567	-0.002670	-0.002515	-0.002962
24419	13740361	-0.010700	0.017751	-9.805465	-0.006606	-0.003423	-0.001420
24420	13740386	-0.017857	0.017102	-9.800159	-0.007373	-0.001435	-0.002110
