// General information: 
//  MT Manager version: 2022.0.0 
//  XDA version: 2022.0.0 build 7085 rev 119802 built on 2022-11-08
// Device information: 
//  DeviceId: 037004D1
//  ProductCode: MTi-300-2A5G4
//  Firmware Version: 1.4.1
//  Hardware Version: 2.1.0
// Device settings: 
//  Filter Profile: general(39.16)
//  Option Flags: Orientation Smoother Disabled, Position/Velocity Smoother Disabled, Continuous Zero Rotation Update Disabled, AHS Disabled, ICC Disabled
// Coordinate system: ENU
PacketCounter	SampleTimeFine	Acc_X	Acc_Y	Acc_Z	Gyr_X	Gyr_Y	Gyr_Z
10409	11751711	0.098437	-9.737227	0.043276	-0.003015	-0.006403	-0.004365
10410	11751736	0.084826	-9.747762	0.038554	-0.002883	-0.000006	-0.002539
10411	11751761	0.118251	-9.757741	0.035410	-0.010316	0.002323	-0.001545
10412	11751786	0.110818	-9.724925	0.024918	-0.009421	-0.001936	-0.003237
10413	11751811	0.102608	-9.729483	0.036950	-0.009722	-0.004445	0.001565
10414	11751836	0.118751	-9.745814	0.000433	-0.010093	-0.002511	0.004135
10415	11751861	0.083640	-9.719735	0.003931	-0.011848	-0.003965	0.002085
10416	11751886	0.095169	-9.734058	0.019694	-0.011440	-0.006738	0.001296
10417	11751911	0.122855	-9.740663	0.039224	-0.010268	-0.008090	-0.006731
10418	11751936	0.095382	-9.727462	0.053228	-0.013611	-0.007363	-0.002034
10419	11751961	0.101948	-9.750368	0.036406	-0.014643	-0.002792	-0.000980
10420	11751986	0.104747	-9.742160	0.029195	-0.015335	-0.005324	-0.001121
10421	11752011	0.090505	-9.739244	0.013452	-0.014430	-0.005370	0.000927
10422	11752036	0.104207	-9.742327	0.039774	-0.013147	-0.005543	0.000027
10423	11752061	0.107334	-9.722705	0.032046	-0.015974	-0.009148	0.001104
10424	11752086	0.083790	-9.726381	0.003870	-0.019263	-0.004689	-0.003350
10425	11752111	0.089897	-9.727841	0.012468	-0.018162	-0.004466	0.003122
10426	11752136	0.122322	-9.769720	0.015192	-0.015154	-0.002737	0.000685
10427	11752161	0.118587	-9.741219	0.010452	-0.014032	-0.003676	0.004268
10428	11752186	0.115745	-9.765709	-0.004402	-0.014496	-0.003506	-0.001182
10429	11752211	0.096563	-9.748697	-0.015772	-0.011490	-0.001253	-0.001365
10430	11752236	0.110396	-9.755914	0.002441	-0.005688	-0.005035	-0.004993
10431	11752261	0.094796	-9.735439	0.016437	-0.003497	-0.003184	-0.003962
10432	11752286	0.100477	-9.766048	0.005389	-0.006784	-0.002463	-0.002730
10433	11752311	0.079236	-9.748811	0.009850	-0.000586	-0.002027	-0.002365
10434	11752336	0.082547	-9.736816	0.003049	-0.005278	0.002465	-0.005911
10435	11752361	0.100947	-9.764115	0.003954	-0.002575	-0.001939	-0.003192
10436	11752386	0.108719	-9.751062	0.025423	-0.006513	-0.000781	-0.003690
10437	11752411	0.101105	-9.740994	0.012532	-0.007200	-0.001314	-0.003818
10438	11752436	0.123102	-9.753720	0.024486	-0.001192	-0.001344	-0.006847
10439	11752461	0.111128	-9.750496	0.021213	0.001150	0.004001	-0.003493
10440	11752486	0.095873	-9.719568	0.034219	0.002237	-0.001717	0.001542
10441	11752511	0.121259	-9.759395	0.021698	0.004461	0.000180	-0.006081
10442	11752536	0.118999	-9.780897	0.030252	-0.002088	0.001635	0.002728
10443	11752561	0.107199	-9.744853	0.021658	-0.001337	-0.000165	0.001942
10444	11752586	0.124010	-9.759921	0.027372	0.001025	-0.000128	-0.000113
10445	11752611	0.113404	-9.737168	0.020192	-0.001547	-0.002247	-0.005378
10446	11752636	0.120376	-9.731907	0.023059	0.000699	-0.004202	-0.001869
10447	11752661	0.102494	-9.750801	0.034191	0.001314	-0.001086	-0.000885
10448	11752686	0.120883	-9.748294	0.040415	0.005251	0.000480	0.005198
10449	11752711	0.102815	-9.730995	0.011205	0.000221	-0.000855	0.000143
10450	11752736	0.112524	-9.742725	0.010626	0.000754	-0.005879	-0.001301
10451	11752761	0.113632	-9.753585	0.007734	-0.001812	0.000529	-0.001770
10452	11752786	0.101539	-9.753281	0.040426	-0.000609	-0.003132	-0.002043
10453	11752811	0.108868	-9.756559	0.012542	-0.002632	-0.002064	-0.001718
10454	11752836	0.079655	-9.733479	-0.000683	-0.002320	-0.004207	-0.006595
10455	11752861	0.092644	-9.730077	0.036069	-0.005989	-0.003091	-0.000237
10456	11752886	0.086178	-9.735126	0.019804	-0.006226	-0.001742	-0.002027
10457	11752911	0.088046	-9.730207	0.010279	-0.002804	-0.002585	-0.001396
10458	11752936	0.088484	-9.756655	0.002013	-0.009374	0.000721	-0.002712
10459	11752961	0.079493	-9.735602	0.014585	-0.005336	-0.005272	0.002511
10460	11752986	0.080298	-9.715998	0.004978	-0.005335	-0.003727	-0.001907
10461	11753011	0.068161	-9.740472	0.013693	-0.004576	-0.001001	0.000349
10462	11753036	0.089403	-9.736700	0.032672	-0.010386	-0.001551	0.001128
10463	11753061	0.071647	-9.766038	0.043793	-0.011390	-0.002289	-0.001052
10464	11753086	0.095405	-9.725864	0.042244	-0.010674	-0.002721	-0.001055
10465	11753111	0.088498	-9.742494	0.038455	-0.008143	-0.001517	0.000870
10466	11753136	0.069919	-9.729147	0.019359	-0.010554	-0.002596	-0.003296
10467	11753161	0.089509	-9.735555	0.019241	-0.011899	-0.008754	-0.001724
10468	11753186	0.103444	-9.751314	0.038359	-0.010148	0.000896	-0.003673
10469	11753211	0.102130	-9.744954	-0.007142	-0.011785	-0.001769	0.001585
10470	11753236	0.078318	-9.742946	-0.003162	-0.005005	-0.001653	0.000601
10471	11753261	0.117092	-9.734408	0.028772	-0.005639	0.004013	-0.004624
10472	11753286	0.101039	-9.728265	-0.013873	-0.009422	0.000077	-0.001365
10473	11753311	0.114315	-9.742928	0.025417	-0.007762	-0.001962	-0.001442
10474	11753336	0.127769	-9.743023	0.011536	-0.000115	-0.002538	-0.000764
10475	11753361	0.107297	-9.738821	-0.000372	-0.001542	-0.002246	-0.002553
10476	11753386	0.127658	-9.752361	-0.029739	-0.002576	0.002198	-0.003299
10477	11753411	0.103528	-9.729605	-0.017642	-0.004376	0.002287	-0.005659
10478	11753436	0.121206	-9.749256	0.010122	0.000305	0.000045	-0.004409
10479	11753461	0.114875	-9.737407	0.005885	0.003296	-0.001192	-0.002880
10480	11753486	0.109546	-9.733653	0.004855	-0.004046	0.000429	0.001056
10481	11753511	0.137406	-9.756178	0.010966	-0.002393	-0.007480	0.001971
10482	11753536	0.099527	-9.722726	-0.004635	0.000104	0.000367	-0.003892
10483	11753561	0.098359	-9.711957	0.003473	-0.002064	0.000270	-0.002658
10484	11753586	0.133094	-9.748608	0.008118	-0.001185	-0.003198	-0.000833
10485	11753611	0.097011	-9.725492	0.018849	-0.004098	-0.000291	-0.003627
10486	11753636	0.086488	-9.715515	0.009263	-0.004348	-0.004365	-0.001788
10487	11753661	0.102402	-9.698385	0.019348	0.000559	-0.005825	-0.002258
10488	11753686	0.080570	-9.751118	0.036568	-0.009732	-0.004457	-0.004464
10489	11753711	0.090296	-9.765035	0.024562	-0.009561	-0.001347	0.000679
10490	11753736	0.072942	-9.741513	0.023188	-0.009225	-0.002387	-0.005542
10491	11753761	0.084482	-9.749788	0.015543	-0.003734	-0.001505	-0.001900
10492	11753786	0.099313	-9.761227	0.031289	-0.005488	-0.002706	-0.002159
10493	11753811	0.077324	-9.723157	0.037098	-0.006114	-0.001220	-0.000927
10494	11753836	0.082108	-9.750843	0.020295	-0.007564	-0.006163	-0.002559
10495	11753861	0.062267	-9.723836	0.007501	-0.003746	-0.007252	0.000572
10496	11753886	0.110286	-9.756635	0.018677	-0.010292	-0.007315	-0.006789
10497	11753911	0.080304	-9.726751	0.026081	-0.005175	-0.006892	-0.002888
10498	11753936	0.093292	-9.736967	0.022172	-0.008801	-0.005335	0.000080
10499	11753961	0.119138	-9.754993	0.042605	-0.008996	-0.005344	-0.002165
10500	11753986	0.110555	-9.751159	0.033134	-0.005779	-0.010002	-0.001942
10501	11754011	0.116956	-9.751118	0.003839	-0.006081	-0.002192	-0.001456
10502	11754036	0.121230	-9.766144	0.029267	-0.003333	-0.004075	0.000966
10503	11754061	0.114388	-9.753889	0.028779	-0.005285	-0.000878	0.001700
10504	11754086	0.113672	-9.746699	-0.007626	-0.003758	-0.000931	-0.004148
10505	11754111	0.112522	-9.743749	0.015385	-0.003657	0.003982	-0.005142
10506	11754136	0.145255	-9.751810	0.041991	-0.008839	0.000285	0.001518
10507	11754161	0.125320	-9.745097	0.021045	-0.005943	0.001691	0.001900
10508	11754186	0.126434	-9.755981	0.020112	-0.003894	0.001593	-0.001246
10509	11754211	0.111139	-9.748340	0.004869	-0.001734	-0.001657	0.002198
10510	11754236	0.128256	-9.755116	0.027285	-0.004046	0.004700	0.001015
10511	11754261	0.120013	-9.760443	0.058937	-0.005133	0.000677	0.002731
10512	11754286	0.124547	-9.753530	0.013823	-0.010487	-0.000659	-0.003552
10513	11754311	0.105861	-9.763929	0.027348	-0.010397	-0.004637	0.008935
10514	11754336	0.097256	-9.721100	0.042730	-0.006375	-0.002779	0.000793
10515	11754361	0.124887	-9.749927	0.026227	-0.012694	0.000535	-0.001359
10516	11754386	0.117158	-9.745049	0.042124	-0.011690	0.000803	-0.004368
10517	11754411	0.121061	-9.754814	0.032930	-0.015125	-0.007580	0.001812
10518	11754436	0.091780	-9.743513	0.045582	-0.011157	-0.001176	0.002418
10519	11754461	0.102285	-9.756498	0.003344	-0.014363	-0.003831	-0.004771
10520	11754486	0.096244	-9.776260	0.018678	-0.016898	-0.002453	-0.002708
10521	11754511	0.088783	-9.753448	0.009642	-0.014226	-0.001810	0.000882
10522	11754536	0.080328	-9.790921	0.003022	-0.008507	-0.002433	-0.002147
10523	11754561	0.081048	-9.790367	0.029396	-0.009751	-0.001279	0.001070
10524	11754586	0.073815	-9.767877	0.010254	-0.010821	-0.008745	-0.004423
10525	11754611	0.042893	-9.773981	0.012813	-0.009541	-0.008525	-0.002497
10526	11754636	0.084490	-9.752935	0.035124	-0.010449	-0.010681	-0.008279
10527	11754661	0.075681	-9.766023	0.015040	-0.008596	-0.016649	-0.005622
10528	11754686	0.056620	-9.734726	0.031528	-0.002472	-0.015768	-0.004415
10529	11754711	0.083166	-9.749514	-0.003610	-0.001244	-0.016129	-0.002436
10530	11754736	0.088591	-9.739292	0.015104	0.001660	-0.020722	0.000994
10531	11754761	0.093844	-9.724665	-0.007040	-0.001103	-0.014378	-0.002556
10532	11754786	0.078468	-9.723127	0.004113	-0.001624	-0.011866	-0.000420
10533	11754811	0.086450	-9.752554	0.011710	-0.001968	-0.009035	-0.001435
10534	11754836	0.096158	-9.736973	0.024593	-0.002617	-0.008847	-0.001623
10535	11754861	0.106715	-9.735444	0.025971	-0.000833	-0.009088	-0.008494
10536	11754886	0.126480	-9.749079	0.002904	-0.002003	-0.010072	-0.002144
10537	11754911	0.116038	-9.718488	0.011051	-0.003755	-0.011525	-0.004135
10538	11754936	0.128907	-9.733475	0.039267	-0.004357	-0.004165	-0.002173
10539	11754961	0.140111	-9.743261	0.006568	-0.006464	-0.010526	0.002030
10540	11754986	0.109449	-9.732609	0.029770	-0.004005	-0.003262	-0.003773
10541	11755011	0.101781	-9.722034	0.014419	-0.007577	0.000492	-0.003676
10542	11755036	0.118004	-9.726548	0.012396	-0.011790	-0.003715	0.000288
10543	11755061	0.139968	-9.735841	0.017580	-0.009198	-0.000435	0.001770
10544	11755086	0.162342	-9.764973	0.016573	-0.005028	0.000466	-0.005741
10545	11755111	0.151986	-9.738014	0.013200	-0.009184	0.000526	-0.003421
10546	11755136	0.122685	-9.751457	-0.000023	-0.006057	-0.003031	-0.001265
10547	11755161	0.119689	-9.734261	-0.009538	-0.002274	0.000978	-0.000612
10548	11755186	0.116056	-9.758115	-0.003874	-0.009038	0.000542	0.001973
10549	11755211	0.095108	-9.734625	0.025965	-0.008766	-0.002040	0.001828
10550	11755236	0.075584	-9.732878	0.019365	-0.006902	0.002068	0.003195
10551	11755261	0.062892	-9.732443	0.011694	-0.011542	0.000226	-0.002572
10552	11755286	0.092702	-9.725118	0.022102	-0.010009	-0.001486	-0.001183
10553	11755311	0.087528	-9.728807	0.011585	-0.011076	-0.003824	0.002275
10554	11755336	0.090195	-9.723403	0.032173	-0.011806	-0.001186	0.000684
10555	11755361	0.085000	-9.752119	0.013083	-0.010253	-0.003752	-0.000162
10556	11755386	0.090629	-9.749275	0.017885	-0.005443	-0.002243	-0.001962
10557	11755411	0.105086	-9.753733	0.011020	-0.012219	-0.002825	-0.004776
10558	11755436	0.094231	-9.724754	-0.000462	-0.013329	-0.001669	-0.000341
10559	11755461	0.092537	-9.753531	0.018792	-0.009598	-0.000177	0.000684
10560	11755486	0.084716	-9.731120	0.004932	-0.007011	0.003421	0.002688
10561	11755511	0.114537	-9.753675	0.014376	-0.005679	0.001307	-0.001238
10562	11755536	0.103407	-9.744596	0.032612	-0.010900	-0.001960	-0.005092
10563	11755561	0.082592	-9.724517	0.036573	-0.008307	-0.004882	-0.001842
10564	11755586	0.089280	-9.727806	0.040438	-0.002605	0.001425	-0.000158
10565	11755611	0.087066	-9.725110	0.016883	-0.009209	0.003365	-0.005965
10566	11755636	0.101197	-9.755754	0.015889	-0.006184	-0.000706	0.000484
10567	11755661	0.116144	-9.772295	0.023483	-0.007382	0.000434	-0.001623
10568	11755686	0.083228	-9.723168	0.011208	-0.004324	0.003006	-0.001553
10569	11755711	0.083242	-9.737259	0.032728	-0.008367	-0.000679	-0.001374
10570	11755736	0.097675	-9.756168	0.040837	-0.007962	-0.003181	0.003165
10571	11755761	0.099844	-9.760571	0.019246	-0.007540	-0.002865	-0.002220
10572	11755786	0.090159	-9.753126	0.021185	-0.009669	-0.004189	0.000219
10573	11755811	0.110196	-9.755289	0.024034	-0.004978	-0.006886	-0.000902
10574	11755836	0.128324	-9.755569	0.025815	-0.008976	-0.004187	-0.005431
10575	11755861	0.112156	-9.762966	0.031181	-0.005035	-0.000815	-0.000875
10576	11755886	0.078450	-9.727192	0.021299	-0.005004	-0.004177	-0.002615
10577	11755911	0.082945	-9.745044	0.015004	-0.008191	-0.006163	0.002255
10578	11755936	0.089476	-9.722058	0.004995	-0.002669	-0.001307	-0.006264
10579	11755961	0.083722	-9.727943	0.014043	-0.006583	-0.002587	-0.001515
10580	11755986	0.110436	-9.738071	0.015401	-0.004615	-0.007904	0.004159
10581	11756011	0.099255	-9.741394	0.006362	-0.003274	-0.006481	-0.005201
10582	11756036	0.101272	-9.749818	-0.000393	-0.004897	0.000666	-0.002854
10583	11756061	0.131614	-9.742904	0.006561	-0.011791	0.000286	-0.001493
10584	11756086	0.111571	-9.739274	0.000927	-0.010864	-0.002795	-0.000606
10585	11756111	0.120220	-9.749687	0.007206	-0.004154	-0.002220	0.000854
10586	11756136	0.097839	-9.750975	0.010601	-0.005704	-0.001730	0.001563
10587	11756161	0.102177	-9.742646	-0.003270	-0.008440	-0.002885	-0.004782
10588	11756186	0.101971	-9.762387	-0.015314	-0.008371	0.001317	-0.003158
10589	11756211	0.116524	-9.749108	-0.003368	-0.008819	-0.000566	-0.001566
10590	11756236	0.117171	-9.759932	-0.008130	-0.004579	-0.005531	-0.002949
10591	11756261	0.102086	-9.748137	0.014901	-0.005849	-0.003675	-0.002229
10592	11756286	0.125990	-9.742689	-0.012020	-0.006947	-0.002918	0.001302
10593	11756311	0.121098	-9.769219	-0.018652	-0.000618	0.003333	0.000039
10594	11756336	0.089745	-9.739322	-0.013310	-0.006393	-0.000383	-0.000417
10595	11756361	0.115903	-9.749653	0.001494	-0.004956	-0.000866	0.004838
10596	11756386	0.105305	-9.764844	-0.007620	-0.006668	-0.004078	-0.002486
10597	11756411	0.116875	-9.741998	-0.001817	0.000799	-0.001036	-0.001077
10598	11756436	0.113686	-9.752870	-0.007604	-0.002614	-0.000580	-0.000100
10599	11756461	0.106419	-9.718728	0.019232	-0.003496	-0.002725	0.001937
10600	11756486	0.093737	-9.726310	0.007925	0.003332	0.001912	-0.001839
10601	11756511	0.072948	-9.741354	0.013253	0.001597	-0.001988	-0.001146
10602	11756536	0.089826	-9.722839	0.026111	0.000671	-0.001436	-0.004734
10603	11756561	0.082997	-9.747446	0.017017	-0.002129	-0.007676	0.000119
10604	11756586	0.094965	-9.760750	0.027056	0.001287	0.000082	0.002071
10605	11756611	0.102391	-9.769093	0.020266	-0.000216	0.000036	-0.006902
10606	11756636	0.097760	-9.763992	0.055272	-0.001442	-0.001143	-0.002041
10607	11756661	0.072686	-9.748340	0.004111	-0.001024	-0.002430	-0.003837
10608	11756686	0.100327	-9.760928	0.012590	-0.002819	-0.004330	-0.001985
10609	11756711	0.096192	-9.737073	0.031291	-0.005475	0.002590	-0.004505
10610	11756736	0.100755	-9.773590	0.034154	-0.004350	-0.001632	0.005156
10611	11756761	0.088654	-9.747476	0.022737	0.001852	0.002542	0.002533
10612	11756786	0.076219	-9.729849	0.007866	-0.006455	-0.000587	-0.004008
10613	11756811	0.095649	-9.728235	0.011209	0.000215	-0.007115	-0.000530
10614	11756836	0.074182	-9.718370	0.000283	-0.002092	-0.000767	-0.001132
10615	11756861	0.099912	-9.754002	-0.006557	0.000998	-0.003551	-0.002314
10616	11756886	0.120000	-9.762923	0.003357	-0.003052	-0.007439	-0.004570
10617	11756911	0.121905	-9.736125	0.021162	0.001070	0.000450	-0.003000
10618	11756936	0.115864	-9.738726	0.000504	-0.005737	-0.000958	-0.002155
10619	11756961	0.102268	-9.719027	0.003912	-0.004819	-0.001656	-0.001898
10620	11756986	0.117807	-9.736639	-0.011519	-0.004765	-0.003590	-0.001653
10621	11757011	0.124629	-9.748552	-0.001936	-0.003752	-0.007653	-0.005463
10622	11757036	0.128459	-9.731192	0.014353	-0.002895	-0.001609	0.001746
10623	11757061	0.133894	-9.735239	0.003714	-0.009494	-0.001612	-0.001377
10624	11757086	0.146257	-9.743999	0.028107	-0.007723	0.001198	-0.002912
10625	11757111	0.135092	-9.760511	0.013331	-0.007676	-0.000279	-0.000668
10626	11757136	0.104682	-9.751950	-0.013335	-0.005180	-0.002697	-0.002864
10627	11757161	0.112519	-9.737407	0.004431	-0.001794	-0.004387	-0.003077
10628	11757186	0.114059	-9.754586	0.012004	-0.004645	-0.001258	-0.001451
10629	11757211	0.093724	-9.733719	0.027421	-0.007685	-0.002027	-0.000292
10630	11757236	0.087670	-9.772385	0.006888	-0.005177	-0.002371	-0.000621
10631	11757261	0.079319	-9.767558	0.026146	-0.002550	-0.001921	0.005981
10632	11757286	0.072544	-9.742737	0.009865	-0.003390	-0.000276	-0.003627
10633	11757311	0.068617	-9.741050	0.021368	-0.003703	0.001465	-0.004190
10634	11757336	0.064819	-9.747892	0.030483	-0.005561	-0.004382	-0.000693
10635	11757361	0.065004	-9.725142	0.032932	-0.003159	0.000834	0.000037
10636	11757386	0.064554	-9.750116	-0.010212	-0.000326	0.000443	0.002846
10637	11757411	0.077122	-9.733266	0.014691	0.003147	-0.002548	-0.001922
10638	11757436	0.078467	-9.756308	0.002646	-0.002892	-0.006273	-0.004043
10639	11757461	0.071976	-9.741026	0.021362	-0.002712	-0.001490	-0.003059
10640	11757486	0.069000	-9.736508	0.033419	0.001186	-0.001360	-0.004220
10641	11757511	0.095880	-9.718156	0.035072	-0.006141	0.001551	-0.002709
10642	11757536	0.073949	-9.757352	0.035766	0.000378	-0.002077	-0.001851
10643	11757561	0.084519	-9.763348	0.033325	0.000192	0.004120	-0.000727
10644	11757586	0.095964	-9.720037	0.034170	-0.003476	0.000170	-0.007156
10645	11757611	0.100397	-9.735160	0.033692	-0.001262	-0.005017	-0.003849
10646	11757636	0.091396	-9.748530	-0.030498	-0.001426	0.002545	-0.001375
10647	11757661	0.081796	-9.718746	-0.000673	0.002231	0.000405	-0.001265
10648	11757686	0.110150	-9.748702	0.027374	-0.004490	-0.002299	-0.005624
10649	11757711	0.118752	-9.750342	0.017253	-0.004967	-0.003269	-0.001781
10650	11757736	0.113528	-9.731351	-0.018655	-0.003338	-0.002150	-0.003640
10651	11757761	0.108394	-9.717202	0.013962	-0.003766	-0.004679	-0.002562
10652	11757786	0.130108	-9.736298	0.007669	-0.000027	-0.003769	-0.005008
10653	11757811	0.121773	-9.757810	0.011515	-0.002931	-0.002849	-0.003195
10654	11757836	0.123781	-9.734095	0.014351	-0.004236	-0.001509	0.001943
10655	11757861	0.116107	-9.749518	-0.007718	-0.009707	-0.003296	-0.004527
10656	11757886	0.093955	-9.734577	-0.009949	-0.003484	0.000763	0.000480
10657	11757911	0.114662	-9.725165	0.011990	-0.005516	0.002408	-0.000018
10658	11757936	0.106662	-9.741175	0.029294	-0.008136	0.000161	-0.001691
10659	11757961	0.092107	-9.746302	0.011167	-0.005481	-0.003026	-0.001968
10660	11757986	0.101530	-9.747344	0.024998	-0.005345	-0.003339	-0.001206
10661	11758011	0.108918	-9.757482	0.011028	-0.007495	-0.002351	-0.004978
10662	11758036	0.089646	-9.737812	0.011646	-0.005926	0.000645	-0.005409
10663	11758061	0.092207	-9.729981	0.030291	-0.009321	0.001377	0.000055
10664	11758086	0.077662	-9.757548	0.052496	-0.004351	0.004111	-0.000136
10665	11758111	0.092135	-9.727569	0.027024	-0.002491	0.002278	0.003500
10666	11758136	0.079639	-9.725327	0.056317	-0.001606	-0.001919	-0.002229
10667	11758161	0.077936	-9.727657	0.021268	-0.007288	-0.000401	0.000872
10668	11758186	0.055613	-9.728885	0.021014	-0.000817	-0.005078	-0.004487
10669	11758211	0.081458	-9.740095	0.030471	0.000785	-0.000785	-0.004989
10670	11758236	0.076133	-9.745002	0.036707	0.000593	-0.000453	0.000721
10671	11758261	0.096087	-9.734220	0.030334	-0.001168	-0.001526	-0.000432
10672	11758286	0.084778	-9.756649	0.060653	0.000505	-0.004148	-0.003013
10673	11758311	0.072838	-9.737931	0.036768	0.002123	-0.000897	-0.006913
10674	11758336	0.088826	-9.731704	0.046735	0.000720	-0.004660	-0.000580
10675	11758361	0.083689	-9.731465	0.026599	-0.001279	-0.004429	-0.000894
10676	11758386	0.074809	-9.738916	0.010341	-0.000250	-0.002153	0.000779
10677	11758411	0.088517	-9.732281	0.021759	-0.001571	0.000855	-0.004075
10678	11758436	0.116154	-9.742033	0.031169	-0.005515	-0.003660	0.002131
10679	11758461	0.082804	-9.734060	0.009276	-0.005300	-0.002165	0.004131
10680	11758486	0.137576	-9.725120	-0.002978	-0.005978	-0.003152	0.003348
10681	11758511	0.111987	-9.764075	-0.021531	-0.006391	-0.004452	0.001617
10682	11758536	0.120297	-9.709261	0.000453	-0.004826	-0.007990	-0.004308
10683	11758561	0.132333	-9.723393	0.003291	-0.004560	-0.006044	-0.002888
10684	11758586	0.122725	-9.760501	0.002807	-0.011204	-0.003822	0.004196
10685	11758611	0.118469	-9.756726	-0.000058	-0.009912	-0.002390	-0.000679
10686	11758636	0.143198	-9.761357	0.013243	-0.011070	0.001924	0.000824
10687	11758661	0.104957	-9.738750	-0.007707	-0.010969	-0.003508	-0.000931
10688	11758686	0.096168	-9.733291	0.001054	-0.007123	-0.001292	0.004840
10689	11758711	0.116105	-9.731812	0.013380	-0.010554	-0.002265	0.002408
10690	11758736	0.087664	-9.734464	0.009220	-0.007610	-0.002350	-0.001127
10691	11758761	0.110497	-9.735851	0.024947	-0.007182	-0.004289	-0.006203
10692	11758786	0.116298	-9.753096	0.040195	-0.012283	-0.002761	-0.005029
10693	11758811	0.099621	-9.744817	0.012969	-0.011502	-0.002734	0.001575
10694	11758836	0.089245	-9.756102	0.028884	-0.011000	-0.002408	-0.000924
10695	11758861	0.123471	-9.755718	0.031634	-0.005263	-0.004050	-0.001207
10696	11758886	0.099651	-9.747272	0.018341	-0.003892	-0.000474	-0.000165
10697	11758911	0.096185	-9.751070	0.046220	0.001132	-0.005814	-0.001486
10698	11758936	0.068205	-9.741931	0.016063	-0.006340	-0.004461	-0.004598
10699	11758961	0.073738	-9.733301	0.014686	-0.002234	0.002217	0.003630
10700	11758986	0.106368	-9.781311	0.015424	-0.001015	-0.000815	-0.006013
10701	11759011	0.080673	-9.744948	0.005950	-0.005542	-0.001283	-0.002597
10702	11759036	0.093168	-9.751868	0.003506	-0.004573	-0.001392	-0.002927
10703	11759061	0.078275	-9.746986	0.013613	-0.008097	-0.001390	-0.002272
10704	11759086	0.104098	-9.755217	0.014049	0.001268	-0.002065	-0.003844
10705	11759111	0.098263	-9.739958	0.004504	0.001626	-0.001222	-0.004864
10706	11759136	0.079795	-9.742737	-0.015093	-0.000224	-0.007509	-0.000338
10707	11759161	0.083176	-9.744207	-0.009771	0.003123	0.000033	-0.005050
10708	11759186	0.069008	-9.716665	-0.021800	-0.003752	-0.002982	0.000344
10709	11759211	0.087311	-9.734724	-0.005509	-0.000034	-0.005387	-0.003533
10710	11759236	0.081665	-9.748350	0.011753	-0.001527	0.001433	-0.003685
10711	11759261	0.083350	-9.723436	-0.002173	-0.001597	-0.000311	-0.002664
10712	11759286	0.098763	-9.739381	-0.001770	-0.000966	-0.002232	-0.002365
10713	11759311	0.107093	-9.749995	-0.014771	-0.002702	-0.004269	-0.003971
10714	11759336	0.117546	-9.754634	-0.013430	-0.005162	-0.000879	-0.000487
10715	11759361	0.109190	-9.729070	-0.016235	-0.004826	-0.001270	-0.000489
10716	11759386	0.121041	-9.746469	0.014879	-0.003083	-0.003548	0.003855
10717	11759411	0.110785	-9.747143	-0.011852	0.000128	0.000314	0.002779
10718	11759436	0.103295	-9.765595	0.009213	-0.001270	-0.000751	-0.002675
10719	11759461	0.116137	-9.775609	0.023133	0.000013	0.001924	0.000602
10720	11759486	0.134427	-9.760475	0.041225	0.001331	0.000595	0.001939
10721	11759511	0.117229	-9.740770	0.011066	-0.003295	0.000897	0.001055
10722	11759536	0.143902	-9.754199	0.041604	-0.001904	-0.002831	-0.001407
10723	11759561	0.128951	-9.732835	0.029145	-0.007872	-0.002483	-0.002800
10724	11759586	0.119771	-9.754155	0.019645	-0.006160	0.002259	-0.003482
10725	11759611	0.116919	-9.745282	-0.004842	-0.010119	0.000124	0.000042
10726	11759636	0.107255	-9.743768	0.012994	-0.006117	0.001299	0.000623
10727	11759661	0.097637	-9.742249	0.029817	-0.006023	0.000133	-0.000921
10728	11759686	0.093989	-9.756088	0.031751	-0.005877	0.001431	-0.002134
10729	11759711	0.103330	-9.740925	0.040799	-0.007331	-0.001512	-0.006317
10730	11759736	0.086225	-9.701572	0.028869	-0.009985	-0.000529	-0.007652
10731	11759761	0.105661	-9.732878	0.012971	-0.007790	-0.000602	0.000232
10732	11759786	0.056078	-9.730845	0.025721	-0.006306	-0.001293	-0.003749
10733	11759811	0.071988	-9.738981	0.012681	-0.005512	0.000015	-0.002590
10734	11759836	0.082744	-9.730906	0.020317	-0.004514	-0.000930	0.001438
10735	11759861	0.073844	-9.741515	0.024123	-0.010444	-0.004075	-0.002412
10736	11759886	0.088988	-9.759639	0.011644	-0.007945	-0.000162	-0.005554
10737	11759911	0.059534	-9.747243	0.045373	-0.004850	0.003324	-0.003226
10738	11759936	0.054281	-9.746297	0.041982	-0.008947	0.001377	-0.001171
10739	11759961	0.067755	-9.737020	0.004936	-0.012212	0.001188	-0.003284
10740	11759986	0.083657	-9.723274	0.018830	-0.009990	-0.002456	-0.003757
10741	11760011	0.084359	-9.733822	-0.004679	-0.010987	-0.004590	0.004889
10742	11760036	0.098162	-9.776581	0.010156	-0.009313	0.002860	-0.002646
10743	11760061	0.077742	-9.737414	0.007338	-0.009021	-0.002699	-0.002675
10744	11760086	0.079202	-9.749752	0.009315	-0.004964	0.001074	0.002974
10745	11760111	0.094509	-9.750398	0.001574	-0.005332	-0.001262	0.003675
10746	11760136	0.101313	-9.758049	0.011042	-0.010176	0.003748	-0.001612
10747	11760161	0.093197	-9.731388	0.029389	-0.003998	-0.001375	-0.002424
10748	11760186	0.099063	-9.736740	0.012111	-0.006926	0.002654	0.002925
10749	11760211	0.100871	-9.766615	0.012527	-0.006650	-0.000256	0.001368
10750	11760236	0.125135	-9.762091	0.015219	-0.012675	0.003701	-0.001994
10751	11760261	0.110231	-9.746592	0.013906	-0.007346	0.003015	-0.004829
10752	11760286	0.121722	-9.762399	0.032585	-0.005622	-0.002961	-0.004998
10753	11760311	0.111965	-9.746401	0.033103	-0.006634	-0.003168	-0.003326
10754	11760336	0.097744	-9.742980	0.015469	-0.002378	-0.002189	-0.003590
10755	11760361	0.110452	-9.740573	0.023997	-0.005086	-0.003068	0.002249
10756	11760386	0.094195	-9.724133	0.021214	-0.004593	-0.003204	-0.005446
10757	11760411	0.111369	-9.729994	0.014503	0.001761	-0.001280	-0.002117
10758	11760436	0.097868	-9.719936	0.028921	0.000560	-0.002010	-0.005263
10759	11760461	0.118730	-9.744072	0.011089	-0.001609	0.000089	-0.000377
10760	11760486	0.119512	-9.759945	-0.005743	-0.003740	-0.003314	0.000058
10761	11760511	0.112906	-9.775859	0.006338	-0.000386	-0.000082	0.000137
10762	11760536	0.140075	-9.779493	0.017624	-0.006102	-0.001997	-0.002360
10763	11760561	0.105531	-9.747833	-0.002796	-0.004154	-0.002414	-0.001021
10764	11760586	0.114230	-9.764910	0.004364	-0.004378	0.002886	0.001317
10765	11760611	0.106460	-9.748781	-0.001414	-0.006212	0.002015	-0.000736
10766	11760636	0.101877	-9.727496	-0.000927	-0.009443	0.000989	-0.000279
10767	11760661	0.088486	-9.731889	0.027034	-0.003991	-0.003643	-0.002566
10768	11760686	0.081841	-9.727407	0.007845	-0.006071	-0.000571	-0.001384
10769	11760711	0.103720	-9.751569	-0.008073	-0.006445	-0.003101	-0.003003
10770	11760736	0.097741	-9.742832	0.005783	-0.007804	0.001922	0.002158
10771	11760761	0.080799	-9.748077	-0.006968	-0.005826	-0.004575	-0.003396
10772	11760786	0.084823	-9.741295	0.019250	-0.012347	-0.000426	-0.000469
10773	11760811	0.077221	-9.736824	-0.000324	-0.005946	-0.002439	0.001103
10774	11760836	0.082100	-9.743381	-0.002263	-0.009722	-0.000377	0.000222
10775	11760861	0.096776	-9.754218	0.035989	-0.011227	-0.001502	-0.001061
10776	11760886	0.070937	-9.738731	0.025559	-0.012212	-0.000879	-0.004454
10777	11760911	0.108937	-9.742798	0.044052	-0.012782	-0.000492	0.001581
10778	11760936	0.085640	-9.745033	0.047040	-0.012989	0.001825	0.000244
10779	11760961	0.068145	-9.745468	0.029884	-0.012802	-0.000177	-0.002655
10780	11760986	0.076150	-9.738626	0.023138	-0.013474	-0.003476	-0.001444
10781	11761011	0.111524	-9.741813	0.012919	-0.009894	-0.003032	0.000596
10782	11761036	0.100020	-9.748878	0.030684	-0.011483	-0.003505	0.001109
10783	11761061	0.119922	-9.734739	0.022461	-0.011122	-0.006536	0.002822
10784	11761086	0.124906	-9.745514	0.017718	-0.006211	-0.000253	-0.000681
10785	11761111	0.140487	-9.750297	0.032954	-0.006102	-0.003405	0.003466
10786	11761136	0.122593	-9.716738	0.025827	-0.008334	0.000289	-0.001644
10787	11761161	0.126672	-9.735082	0.019090	-0.009347	-0.002508	-0.002931
10788	11761186	0.118330	-9.719122	0.022992	-0.006729	-0.002068	-0.001591
10789	11761211	0.108218	-9.743768	0.012989	-0.006089	0.000075	-0.001712
10790	11761236	0.136637	-9.731219	0.022416	-0.007157	-0.001116	-0.004850
10791	11761261	0.125284	-9.747988	0.024423	-0.006413	-0.005931	0.000952
10792	11761286	0.123920	-9.748495	0.024856	-0.008745	-0.003269	-0.002040
10793	11761311	0.124236	-9.723330	-0.007177	0.001031	-0.004388	0.001647
10794	11761336	0.119100	-9.767610	-0.001387	-0.003049	-0.003172	-0.002119
10795	11761361	0.092542	-9.746838	0.015091	0.001921	-0.002176	-0.001927
10796	11761386	0.083335	-9.738140	0.028080	0.002998	-0.004295	-0.004448
10797	11761411	0.095856	-9.745831	0.014090	0.000517	-0.004660	-0.002198
10798	11761436	0.109672	-9.768999	-0.011470	-0.002761	-0.000063	-0.002676
10799	11761461	0.101639	-9.744279	0.010139	-0.007765	-0.004098	-0.005442
10800	11761486	0.080119	-9.742265	0.016086	-0.000483	-0.005524	-0.004569
10801	11761511	0.100035	-9.738861	0.026948	-0.005311	-0.002830	-0.004928
10802	11761536	0.081454	-9.726822	-0.000213	0.000112	-0.004023	-0.003344
10803	11761561	0.069615	-9.734547	-0.000227	-0.004640	-0.005198	0.000380
10804	11761586	0.058730	-9.711308	0.022306	-0.006969	-0.008862	-0.003476
10805	11761611	0.082294	-9.725595	0.013634	-0.003502	-0.008926	-0.000156
10806	11761636	0.114041	-9.750311	0.011542	-0.003758	-0.005250	-0.002897
10807	11761661	0.086257	-9.733361	-0.002748	-0.008516	-0.006297	0.000831
10808	11761686	0.071075	-9.747227	0.022668	-0.013152	-0.007676	-0.003009
10809	11761711	0.090215	-9.743756	-0.001765	-0.006598	-0.001936	0.000852
10810	11761736	0.108391	-9.745918	-0.001446	-0.010146	-0.003754	-0.005884
10811	11761761	0.067474	-9.754080	0.002640	-0.007820	-0.002091	-0.002734
10812	11761786	0.097379	-9.731080	0.043612	-0.014929	-0.003956	-0.001317
10813	11761811	0.105481	-9.748423	0.004771	-0.011395	-0.000280	-0.000922
10814	11761836	0.099988	-9.773938	0.025449	-0.010552	-0.002916	-0.003441
10815	11761861	0.097421	-9.728386	0.022555	-0.010967	-0.003365	0.003292
10816	11761886	0.101570	-9.741407	0.009154	-0.010258	-0.005949	-0.001600
10817	11761911	0.119722	-9.743446	0.001859	-0.010005	-0.003614	-0.000243
10818	11761936	0.130507	-9.739874	0.024835	-0.006454	-0.000775	-0.002545
10819	11761961	0.098580	-9.740657	0.019244	-0.008649	0.000167	0.001247
10820	11761986	0.107883	-9.719568	0.013418	-0.009267	-0.000431	0.001763
10821	11762011	0.098659	-9.732681	-0.005660	-0.005499	-0.002109	0.002640
10822	11762036	0.106075	-9.756433	0.001943	-0.008769	-0.002365	-0.001328
10823	11762061	0.122247	-9.745127	0.051760	-0.004369	-0.005706	0.001848
10824	11762086	0.109054	-9.754254	0.048940	-0.008066	-0.003961	0.001675
10825	11762111	0.131263	-9.763126	0.025853	-0.004002	-0.003448	-0.002500
10826	11762136	0.116724	-9.733087	0.003906	0.000621	-0.003815	-0.000979
10827	11762161	0.094763	-9.732479	0.008305	0.000380	-0.004402	-0.002326
10828	11762186	0.101569	-9.740883	0.005980	0.003095	-0.007133	-0.000612
10829	11762211	0.088404	-9.745455	-0.016076	0.000226	-0.001298	0.000322
10830	11762236	0.108464	-9.738779	-0.033432	0.000076	-0.004669	-0.000340
10831	11762261	0.095691	-9.752935	-0.017467	0.005308	-0.004315	-0.002532
10832	11762286	0.079331	-9.753418	0.000793	0.005886	-0.001976	0.001074
10833	11762311	0.102200	-9.751336	0.006918	0.005051	-0.000122	-0.003979
10834	11762336	0.069246	-9.738318	-0.002557	0.001998	-0.003085	-0.005271
10835	11762361	0.077780	-9.748393	0.011887	0.008914	-0.004633	0.000924
10836	11762386	0.081108	-9.767972	-0.008865	-0.001022	-0.002751	-0.004555
10837	11762411	0.057532	-9.763217	0.003254	0.000733	-0.001098	-0.000569
10838	11762436	0.095832	-9.746277	0.012127	-0.005198	-0.003843	0.001480
10839	11762461	0.091061	-9.754604	0.025512	-0.006214	-0.008251	0.002095
10840	11762486	0.071970	-9.738106	0.016636	0.001740	-0.002700	-0.002830
10841	11762511	0.076029	-9.762299	0.019442	-0.001930	-0.006250	-0.001109
10842	11762536	0.085643	-9.756184	0.000210	-0.003085	-0.001882	-0.002562
10843	11762561	0.095831	-9.747815	0.019785	-0.003058	-0.002906	-0.001410
10844	11762586	0.079410	-9.728086	0.019326	-0.007720	-0.003053	-0.001653
10845	11762611	0.101021	-9.756809	0.053703	-0.011265	-0.000346	-0.004523
10846	11762636	0.122094	-9.753762	0.026309	-0.007331	-0.001439	-0.003639
10847	11762661	0.109665	-9.768523	0.051305	-0.009084	-0.006372	0.002307
10848	11762686	0.075372	-9.745180	0.017348	-0.016007	-0.002043	-0.001051
10849	11762711	0.104330	-9.747005	0.035996	-0.008512	-0.002493	-0.003316
10850	11762736	0.097934	-9.733850	0.039376	-0.007227	-0.006668	-0.001097
10851	11762761	0.113020	-9.715091	0.034502	-0.007159	-0.007059	-0.005269
10852	11762786	0.149765	-9.776254	0.061201	-0.005816	-0.004700	-0.001033
10853	11762811	0.129533	-9.731078	0.007153	-0.002646	-0.001547	-0.001726
10854	11762836	0.119646	-9.737431	0.011434	-0.010894	-0.004414	-0.006658
10855	11762861	0.115443	-9.760499	0.027362	-0.005944	-0.002502	0.000970
10856	11762886	0.126522	-9.755402	0.013466	0.000307	-0.000148	-0.005835
10857	11762911	0.132499	-9.757167	0.040725	-0.001566	-0.001135	0.001089
10858	11762936	0.109688	-9.744690	0.012515	-0.002286	-0.001086	-0.003071
10859	11762961	0.119131	-9.737217	-0.002365	-0.003630	-0.000715	0.002000
10860	11762986	0.078119	-9.732241	0.010300	-0.001970	0.001110	-0.003248
10861	11763011	0.097779	-9.736502	-0.005077	0.002497	-0.000484	-0.001606
10862	11763036	0.104385	-9.740548	0.016426	-0.000800	0.002809	-0.003892
10863	11763061	0.112161	-9.742944	-0.006124	0.000338	0.005285	-0.003304
10864	11763086	0.127579	-9.772275	0.031649	-0.001770	0.000659	-0.004920
10865	11763111	0.108364	-9.750748	0.004450	0.002779	0.003141	-0.001071
10866	11763136	0.116503	-9.748501	-0.011401	0.001493	0.001507	0.001486
10867	11763161	0.114925	-9.738708	-0.001798	0.000405	-0.004849	0.000177
10868	11763186	0.093680	-9.717208	0.002146	0.002719	-0.003061	-0.000462
10869	11763211	0.102602	-9.717358	0.019710	-0.003965	-0.000340	-0.002164
10870	11763236	0.092277	-9.759945	0.003591	-0.000377	0.001733	-0.000112
10871	11763261	0.085061	-9.735531	0.045245	-0.000978	-0.003971	-0.003153
10872	11763286	0.091569	-9.725923	0.044219	-0.006193	-0.002439	0.002514
10873	11763311	0.083236	-9.736776	0.032786	-0.005236	-0.002621	-0.000888
10874	11763336	0.107010	-9.761328	0.012500	-0.008966	-0.002113	-0.000814
10875	11763361	0.111481	-9.739630	0.024482	-0.004248	-0.004040	-0.005966
10876	11763386	0.065446	-9.724159	0.030376	-0.011183	-0.002855	-0.000744
10877	11763411	0.066991	-9.737976	0.036120	-0.012258	-0.000992	0.003369
10878	11763436	0.089284	-9.751588	0.012548	-0.010940	-0.000468	-0.002277
10879	11763461	0.065239	-9.737754	0.019855	-0.012203	0.001197	-0.001299
10880	11763486	0.091483	-9.748079	0.033561	-0.016977	0.000139	-0.001805
10881	11763511	0.070087	-9.745789	0.021722	-0.012881	0.000086	-0.001876
10882	11763536	0.096357	-9.754445	0.019646	-0.014132	-0.002258	0.003435
10883	11763561	0.096821	-9.742366	0.005333	-0.012478	-0.004888	-0.003383
10884	11763586	0.107264	-9.737720	-0.010585	-0.013655	-0.001214	0.003693
10885	11763611	0.105720	-9.731394	0.008599	-0.011827	-0.002550	0.000025
10886	11763636	0.093042	-9.741902	0.002930	-0.013022	-0.003539	-0.002153
10887	11763661	0.120074	-9.773737	-0.002438	-0.008766	-0.000352	0.001949
10888	11763686	0.112775	-9.773350	0.027792	-0.006931	0.002515	0.000103
10889	11763711	0.107266	-9.736502	0.002422	-0.008547	0.004937	-0.000778
10890	11763736	0.107445	-9.741972	-0.011987	-0.012219	-0.002883	-0.004719
10891	11763761	0.105320	-9.746706	0.017330	-0.005959	-0.004116	0.001030
10892	11763786	0.131151	-9.740424	-0.001088	-0.009944	0.000586	-0.001572
10893	11763811	0.104713	-9.726697	0.011093	-0.007570	-0.001833	-0.002417
10894	11763836	0.122118	-9.744883	0.004285	-0.009291	-0.001727	0.000985
10895	11763861	0.094018	-9.737897	-0.010406	-0.004892	0.002812	-0.001630
10896	11763886	0.127943	-9.760235	0.020570	-0.004867	-0.000493	-0.004473
10897	11763911	0.095334	-9.731698	-0.010894	-0.004792	-0.002745	-0.001082
10898	11763936	0.115090	-9.744138	-0.019631	-0.004034	-0.000083	-0.001206
10899	11763961	0.099631	-9.732193	-0.006068	-0.000733	0.000615	-0.002038
10900	11763986	0.098207	-9.727346	-0.014167	0.001271	-0.002000	-0.002311
10901	11764011	0.098655	-9.736216	0.008278	-0.004013	0.003208	-0.001118
10902	11764036	0.075649	-9.726459	0.003152	0.001423	0.001693	0.000791
10903	11764061	0.071260	-9.719521	0.011244	-0.005038	-0.000814	-0.000359
10904	11764086	0.082420	-9.735566	0.014628	-0.000425	-0.000922	-0.001918
10905	11764111	0.076842	-9.749465	0.019399	-0.005224	-0.003341	-0.004610
10906	11764136	0.082034	-9.749042	0.026111	-0.000776	-0.002159	-0.003655
10907	11764161	0.049417	-9.734468	0.039647	-0.004503	0.000092	-0.006066
10908	11764186	0.078970	-9.726191	0.019379	-0.004357	0.001976	-0.003432
10909	11764211	0.073738	-9.736454	0.034761	-0.004703	0.002879	-0.002269
10910	11764236	0.070611	-9.751922	0.019935	-0.001097	0.000226	0.000592
10911	11764261	0.084415	-9.741622	0.008829	-0.004333	-0.002997	-0.001343
10912	11764286	0.076937	-9.715134	0.007910	-0.002922	-0.000770	0.000784
10913	11764311	0.056625	-9.719591	0.003629	-0.009614	0.001676	-0.009574
10914	11764336	0.085010	-9.752653	0.016979	-0.002749	-0.002716	-0.005703
10915	11764361	0.063342	-9.737152	0.010291	-0.009155	-0.001979	0.001690
10916	11764386	0.101717	-9.751791	0.005334	-0.008340	-0.001715	-0.001775
10917	11764411	0.097146	-9.743237	0.031731	-0.006999	0.002643	-0.001818
10918	11764436	0.118624	-9.741860	0.022006	-0.008774	-0.004113	-0.000440
10919	11764461	0.114038	-9.746849	0.002379	-0.008471	-0.003713	-0.001335
10920	11764486	0.116439	-9.708816	-0.000988	-0.010242	-0.000133	-0.000289
10921	11764511	0.105440	-9.742099	-0.005268	-0.008710	-0.004233	-0.001211
10922	11764536	0.114024	-9.747767	0.000009	-0.005542	0.003320	0.001708
10923	11764561	0.120320	-9.744555	-0.018251	-0.009769	-0.000893	0.001371
10924	11764586	0.105417	-9.751110	0.025487	-0.005592	-0.003998	-0.005640
10925	11764611	0.119944	-9.738606	0.026797	-0.008568	-0.002550	0.001426
10926	11764636	0.117941	-9.762269	0.021474	-0.013277	0.000657	-0.000529
10927	11764661	0.107719	-9.742868	0.016281	-0.010455	0.004582	-0.002506
10928	11764686	0.112235	-9.737169	0.050295	-0.011666	-0.006036	-0.003137
10929	11764711	0.129111	-9.737473	0.021512	-0.005808	-0.003293	-0.006410
10930	11764736	0.112941	-9.739993	0.018688	-0.007954	-0.004230	-0.005955
10931	11764761	0.116647	-9.725881	-0.001952	-0.008661	-0.001712	0.000213
10932	11764786	0.097338	-9.722638	0.050378	-0.008850	0.002016	-0.007014
10933	11764811	0.099648	-9.749906	0.035115	-0.003091	0.000054	-0.004917
10934	11764836	0.115594	-9.772426	0.031710	-0.002632	-0.002061	-0.001343
10935	11764861	0.093879	-9.744662	0.028863	-0.007470	-0.000794	-0.002031
10936	11764886	0.088096	-9.738003	0.023677	-0.002848	0.000711	-0.003439
10937	11764911	0.067555	-9.734970	0.025689	-0.002730	-0.000902	-0.000951
10938	11764936	0.063421	-9.744435	0.020428	-0.005542	-0.003277	-0.003260
10939	11764961	0.099771	-9.750944	0.010638	-0.005932	-0.000896	-0.000946
10940	11764986	0.108288	-9.760690	0.034142	-0.003608	-0.003693	-0.000639
10941	11765011	0.098556	-9.770483	0.014983	-0.002228	-0.002697	-0.001220
10942	11765036	0.089133	-9.741805	0.024538	-0.008830	-0.004765	-0.004417
10943	11765061	0.114397	-9.739828	0.008581	-0.009112	-0.003794	-0.002362
10944	11765086	0.084875	-9.744638	0.020303	-0.008018	0.000231	-0.001375
10945	11765111	0.097036	-9.718673	0.007756	-0.006297	-0.004011	-0.006346
10946	11765136	0.099834	-9.757543	0.008208	-0.006290	-0.003479	0.001612
10947	11765161	0.098509	-9.756917	-0.003726	-0.006869	-0.001751	-0.002933
10948	11765186	0.096057	-9.757566	0.005794	-0.011152	-0.006153	-0.002368
10949	11765211	0.094350	-9.731017	0.005342	-0.009261	-0.001153	-0.003761
10950	11765236	0.116407	-9.736197	-0.010089	-0.009716	0.001101	-0.002651
10951	11765261	0.100380	-9.736901	-0.039693	-0.005934	-0.003092	-0.002684
10952	11765286	0.118499	-9.747797	-0.025429	-0.008021	-0.010101	-0.000219
10953	11765311	0.095256	-9.755219	-0.024317	-0.004552	-0.004227	-0.000322
10954	11765336	0.093906	-9.726042	-0.009972	-0.007319	-0.005770	-0.001927
10955	11765361	0.105688	-9.722673	-0.002817	-0.004525	-0.005133	-0.001612
10956	11765386	0.108598	-9.721117	-0.010030	-0.009203	-0.005089	-0.003842
10957	11765411	0.106792	-9.767448	-0.021535	-0.009745	-0.001857	0.001051
10958	11765436	0.120996	-9.730201	0.005190	-0.010291	-0.005044	-0.003134
10959	11765461	0.106901	-9.748906	0.007232	-0.008166	-0.005327	-0.000960
10960	11765486	0.104418	-9.763246	-0.019581	-0.003472	0.000115	-0.003766
10961	11765511	0.098840	-9.739661	-0.015275	-0.007465	-0.007315	-0.002123
10962	11765536	0.095954	-9.752941	0.013583	-0.003658	-0.006151	-0.001296
10963	11765561	0.102134	-9.760319	0.036043	-0.004867	-0.002365	-0.003709
10964	11765586	0.070924	-9.740090	0.021426	0.000945	-0.005937	-0.000022
10965	11765611	0.071593	-9.731447	-0.014992	0.002669	-0.003847	-0.003029
10966	11765636	0.078175	-9.748250	0.034277	-0.002220	-0.006905	-0.000598
10967	11765661	0.092359	-9.741920	0.034718	-0.000979	-0.005978	-0.002967
10968	11765686	0.089977	-9.743857	0.035190	-0.001387	-0.013213	0.001097
10969	11765711	0.068800	-9.732044	0.052557	-0.001487	-0.012319	-0.003061
10970	11765736	0.100689	-9.760743	0.031293	-0.001532	-0.015090	-0.001352
10971	11765761	0.086087	-9.739601	0.033347	0.004029	-0.020806	0.001042
10972	11765786	0.074545	-9.726418	0.030454	-0.000481	-0.019978	-0.000805
10973	11765811	0.070344	-9.743404	0.052534	-0.002640	-0.018407	-0.000596
10974	11765836	0.089456	-9.730850	0.021844	0.003110	-0.024647	-0.004169
10975	11765861	0.066890	-9.721624	0.020887	-0.003190	-0.025389	0.001937
10976	11765886	0.110338	-9.723888	0.017812	-0.001819	-0.026600	-0.002822
10977	11765911	0.101958	-9.756672	0.046150	-0.001542	-0.024842	0.000909
10978	11765936	0.106301	-9.723920	0.048042	-0.000642	-0.027023	0.001276
10979	11765961	0.123577	-9.740959	-0.002884	-0.002320	-0.025059	-0.004099
10980	11765986	0.111002	-9.749823	0.039392	-0.003375	-0.028242	-0.003080
10981	11766011	0.115547	-9.764206	0.021192	0.001846	-0.025111	-0.001289
10982	11766036	0.107889	-9.753233	0.011582	-0.005327	-0.024982	-0.002100
10983	11766061	0.110430	-9.756778	-0.003315	-0.005461	-0.016458	-0.003463
10984	11766086	0.127673	-9.761071	-0.018266	-0.005765	-0.016974	-0.000775
10985	11766111	0.104172	-9.749627	-0.010477	-0.006597	-0.016990	-0.002500
10986	11766136	0.121307	-9.753145	-0.014408	-0.004753	-0.016044	0.003654
10987	11766161	0.110469	-9.744939	-0.032163	-0.012419	-0.006635	-0.002880
10988	11766186	0.106499	-9.738050	-0.021054	-0.006042	-0.012204	-0.003824
10989	11766211	0.109474	-9.745483	-0.028744	-0.007206	-0.001180	-0.003126
10990	11766236	0.082978	-9.767925	-0.009965	-0.012866	-0.002700	-0.003047
10991	11766261	0.102887	-9.751855	-0.021043	-0.008371	-0.005272	-0.005510
10992	11766286	0.105709	-9.762007	-0.006254	-0.011204	-0.006673	-0.002690
10993	11766311	0.061197	-9.709942	-0.003125	-0.011112	0.001217	-0.000271
10994	11766336	0.112870	-9.725266	-0.013916	-0.009212	-0.004371	0.001867
10995	11766361	0.102295	-9.758865	0.002925	-0.010557	-0.002465	-0.001264
10996	11766386	0.086268	-9.737677	0.000577	-0.011304	-0.002919	0.001371
10997	11766411	0.098428	-9.761363	0.008183	-0.011723	-0.001894	0.001119
10998	11766436	0.061833	-9.729677	0.016060	-0.009434	-0.003478	-0.000945
10999	11766461	0.089109	-9.741299	0.022135	-0.010113	-0.002456	-0.003439
11000	11766486	0.088505	-9.734196	0.023155	-0.007145	-0.002916	0.000077
11001	11766511	0.105028	-9.762454	0.023072	-0.004186	0.000630	-0.000688
11002	11766536	0.077647	-9.737275	0.029406	-0.007762	0.004171	-0.005397
11003	11766561	0.093920	-9.738223	0.011577	-0.008298	0.003067	-0.003478
11004	11766586	0.100511	-9.754105	0.031771	-0.004528	-0.002468	0.004175
11005	11766611	0.123091	-9.755516	0.018154	-0.006649	-0.000647	-0.001512
11006	11766636	0.113167	-9.721510	0.019705	-0.003693	-0.001118	-0.003517
11007	11766661	0.128305	-9.765202	0.035430	-0.004566	-0.003575	0.001217
11008	11766686	0.113388	-9.745312	0.025935	-0.003628	-0.000785	-0.001082
11009	11766711	0.115019	-9.754215	0.019616	-0.009349	0.003889	-0.003666
11010	11766736	0.102944	-9.744442	0.021647	-0.006880	-0.001363	-0.002223
11011	11766761	0.112589	-9.756202	0.023585	-0.000967	-0.002158	-0.000323
11012	11766786	0.123465	-9.746397	0.011017	-0.002879	0.002074	0.001949
11013	11766811	0.121861	-9.736586	0.020192	0.000660	-0.000577	0.001483
11014	11766836	0.104583	-9.751360	0.009701	-0.002286	-0.001223	-0.004417
11015	11766861	0.121869	-9.763872	0.004844	-0.001293	0.000095	-0.001276
11016	11766886	0.116347	-9.736345	0.000070	0.000247	-0.004475	-0.005342
11017	11766911	0.105407	-9.736318	-0.010937	-0.002962	0.002585	0.001121
11018	11766936	0.093447	-9.737854	0.017896	-0.003061	-0.001243	-0.007553
11019	11766961	0.082366	-9.733222	0.016001	-0.002785	-0.001487	-0.003837
11020	11766986	0.117226	-9.731030	-0.005684	-0.001341	-0.002034	0.001669
11021	11767011	0.085279	-9.739451	0.023192	-0.004880	-0.004110	-0.003526
11022	11767036	0.082684	-9.725247	-0.039538	-0.001302	-0.000055	-0.009094
11023	11767061	0.097017	-9.743481	-0.014778	-0.006934	0.000048	-0.006773
11024	11767086	0.108228	-9.736938	0.000963	-0.010622	-0.000457	-0.001633
11025	11767111	0.091728	-9.756385	0.017866	-0.006706	-0.005439	-0.007182
11026	11767136	0.087519	-9.758208	0.009687	-0.008243	-0.000942	-0.005430
11027	11767161	0.089108	-9.733933	0.006366	-0.007786	-0.003250	-0.002168
11028	11767186	0.065403	-9.749061	0.014609	-0.008772	-0.004366	-0.001912
11029	11767211	0.088591	-9.729600	0.001577	-0.006701	-0.000778	-0.000750
11030	11767236	0.123041	-9.762913	0.036410	-0.004245	-0.001311	0.001998
11031	11767261	0.099505	-9.738845	0.025966	-0.006975	-0.002140	0.001171
11032	11767286	0.103726	-9.776436	0.036062	-0.002138	0.000595	-0.002998
11033	11767311	0.086726	-9.743291	0.026580	-0.002569	-0.004071	-0.001992
11034	11767336	0.117760	-9.741670	0.007660	-0.008716	-0.004044	-0.001916
11035	11767361	0.111343	-9.760702	0.005852	-0.000291	-0.001307	-0.002247
11036	11767386	0.112326	-9.742123	0.034122	-0.000796	0.001077	0.002646
11037	11767411	0.101816	-9.763694	0.008275	-0.002296	-0.004640	-0.000459
11038	11767436	0.084326	-9.739285	0.011227	-0.006211	0.000012	0.000603
11039	11767461	0.101544	-9.726928	-0.007950	0.002271	-0.001600	-0.005457
11040	11767486	0.104063	-9.755743	0.017427	0.002398	0.000869	-0.001918
11041	11767511	0.119883	-9.761673	0.014442	0.000253	-0.000073	-0.002433
11042	11767536	0.097322	-9.745682	0.005016	0.005978	0.001059	-0.001220
11043	11767561	0.093565	-9.743808	0.003590	0.003266	-0.002545	-0.004055
11044	11767586	0.107331	-9.747934	0.005412	0.000751	-0.003748	-0.000525
11045	11767611	0.103661	-9.761280	0.006337	-0.002870	-0.000317	0.002581
11046	11767636	0.114594	-9.745163	-0.013760	0.003596	-0.004801	-0.001886
11047	11767661	0.094660	-9.719020	-0.002664	0.002016	-0.003207	0.000176
11048	11767686	0.076930	-9.747796	0.003172	0.003432	0.002566	-0.004086
11049	11767711	0.111423	-9.728879	0.003932	0.000682	-0.003421	0.000560
11050	11767736	0.124699	-9.751736	-0.011009	-0.002624	-0.004783	-0.005399
11051	11767761	0.104583	-9.758656	0.021696	-0.002131	-0.006258	-0.005406
11052	11767786	0.090711	-9.733939	-0.023727	0.000328	-0.002722	-0.002632
11053	11767811	0.132754	-9.759998	0.009076	-0.003953	-0.000799	-0.001082
11054	11767836	0.105375	-9.744698	0.009684	-0.003225	-0.001553	-0.001726
11055	11767861	0.110117	-9.736053	0.006699	-0.010291	-0.002979	-0.003316
11056	11767886	0.107126	-9.746162	0.044630	-0.005168	-0.005214	-0.004558
11057	11767911	0.103665	-9.735658	0.037900	-0.008415	-0.001256	-0.000742
11058	11767936	0.100000	-9.740627	0.018731	-0.010116	-0.004190	0.001168
11059	11767961	0.076280	-9.746117	0.017426	-0.009407	0.000152	0.002028
11060	11767986	0.101323	-9.766746	0.021127	-0.009841	-0.002968	-0.002484
11061	11768011	0.103942	-9.748025	0.009666	-0.007619	-0.001881	0.004503
11062	11768036	0.080653	-9.744776	-0.005200	-0.014502	-0.004911	0.003357
11063	11768061	0.120967	-9.749213	0.039223	-0.009458	0.003834	0.002939
11064	11768086	0.119716	-9.738128	-0.005294	-0.008802	-0.003533	-0.003453
11065	11768111	0.133558	-9.752093	0.020022	-0.007029	-0.002789	-0.003263
11066	11768136	0.110580	-9.738827	0.002381	-0.010422	-0.000642	-0.000544
11067	11768161	0.104253	-9.773874	0.023586	-0.005354	-0.001077	-0.002611
11068	11768186	0.098332	-9.743767	0.004862	-0.008634	0.001313	-0.004005
11069	11768211	0.124212	-9.759987	0.000828	-0.011237	-0.001308	-0.000805
11070	11768236	0.106982	-9.758496	0.013432	-0.009680	0.002205	-0.000407
11071	11768261	0.136230	-9.768361	-0.000127	-0.009358	0.000146	-0.000165
11072	11768286	0.097633	-9.734797	0.007688	-0.011113	0.005548	0.000197
11073	11768311	0.114751	-9.757936	-0.016873	-0.014083	-0.004137	0.000730
11074	11768336	0.116698	-9.750521	-0.035010	-0.008200	-0.002222	-0.001140
11075	11768361	0.107038	-9.738308	-0.034966	-0.006925	0.000121	-0.002673
11076	11768386	0.099893	-9.755175	0.007748	-0.009781	-0.003101	-0.005434
11077	11768411	0.113081	-9.732157	-0.028701	-0.002715	-0.003290	0.000256
11078	11768436	0.112685	-9.743415	-0.006156	-0.001444	0.002734	-0.003505
11079	11768461	0.094578	-9.743005	-0.017102	-0.004512	0.002944	0.000612
11080	11768486	0.088942	-9.747916	-0.010308	0.000930	-0.007491	-0.001960
11081	11768511	0.100944	-9.752644	-0.032945	-0.004244	0.000568	0.001562
11082	11768536	0.110885	-9.750902	-0.014756	-0.000837	-0.004230	-0.001556
11083	11768561	0.101231	-9.758763	0.026483	-0.002378	-0.002261	-0.004102
11084	11768586	0.090074	-9.735881	0.010261	0.000370	0.001989	-0.005369
11085	11768611	0.103238	-9.759349	0.003444	-0.004448	-0.001322	-0.002554
11086	11768636	0.083209	-9.724170	0.014567	-0.003649	-0.004338	-0.000773
11087	11768661	0.114649	-9.753440	-0.000398	-0.001663	-0.000700	-0.006595
11088	11768686	0.081738	-9.751479	-0.000309	-0.007544	-0.000864	-0.003757
11089	11768711	0.062593	-9.740233	-0.006417	-0.005269	-0.003724	-0.001085
11090	11768736	0.067607	-9.734363	0.016608	-0.001627	-0.001337	-0.002110
11091	11768761	0.079233	-9.752774	0.020287	-0.006670	-0.001875	-0.000495
11092	11768786	0.098891	-9.760658	0.024105	-0.004098	-0.000611	-0.004922
11093	11768811	0.073856	-9.741807	0.012707	-0.004409	-0.002538	0.000976
11094	11768836	0.066526	-9.732610	0.025699	-0.004283	-0.000079	0.002906
11095	11768861	0.083600	-9.753137	0.016889	-0.009388	-0.001220	-0.005805
11096	11768886	0.091984	-9.726693	0.062454	-0.005554	-0.007023	-0.001037
11097	11768911	0.091564	-9.751426	0.035178	-0.004151	-0.002810	-0.004610
11098	11768936	0.094861	-9.735739	0.004394	-0.008287	0.000745	-0.002211
11099	11768961	0.081461	-9.741984	0.030399	-0.006105	0.000262	-0.004394
11100	11768986	0.083077	-9.724474	0.034203	-0.005090	0.000931	-0.001000
11101	11769011	0.089429	-9.741057	0.037903	-0.014403	-0.002134	0.000098
11102	11769036	0.114794	-9.747988	0.046468	-0.008495	-0.005341	-0.004937
11103	11769061	0.111643	-9.751308	0.012823	-0.016770	-0.000180	0.000112
11104	11769086	0.122524	-9.739715	0.007571	-0.010470	-0.001235	-0.002216
11105	11769111	0.121927	-9.744347	0.031113	-0.008607	0.002876	-0.000986
11106	11769136	0.121520	-9.742135	0.010474	-0.009668	-0.004312	0.000073
11107	11769161	0.122150	-9.750610	0.006178	-0.008146	-0.003900	-0.001085
11108	11769186	0.136470	-9.733364	-0.024668	-0.016029	-0.003722	-0.002664
11109	11769211	0.132275	-9.719080	0.000378	-0.007483	-0.000340	-0.001261
11110	11769236	0.167973	-9.776645	-0.022796	-0.009570	-0.003679	-0.003971
11111	11769261	0.133043	-9.736490	-0.008748	-0.008023	0.000232	-0.001700
11112	11769286	0.128239	-9.737074	-0.004794	-0.004464	-0.002739	0.000001
11113	11769311	0.130172	-9.765230	-0.024027	-0.004946	0.002094	-0.003240
11114	11769336	0.103194	-9.748803	-0.003260	-0.005768	-0.006582	-0.005141
11115	11769361	0.116873	-9.748924	0.016733	-0.007765	0.000232	-0.001955
11116	11769386	0.109108	-9.759342	-0.022486	-0.006767	0.003423	-0.000787
11117	11769411	0.127422	-9.753341	0.003765	-0.006665	-0.002065	-0.001204
11118	11769436	0.099146	-9.760820	-0.027221	-0.008288	-0.001320	0.000024
11119	11769461	0.095439	-9.746218	0.007743	-0.008556	0.001195	-0.001696
11120	11769486	0.083208	-9.756289	0.005447	-0.007652	0.002755	-0.004381
11121	11769511	0.099963	-9.738946	0.032648	-0.007722	0.000882	-0.002465
11122	11769536	0.087445	-9.730661	0.038891	-0.010826	-0.000209	-0.003871
11123	11769561	0.061354	-9.727812	0.018000	-0.006121	-0.003029	-0.001845
11124	11769586	0.079213	-9.745048	0.011683	-0.006552	-0.003818	-0.004806
11125	11769611	0.086690	-9.774488	0.019402	-0.002140	-0.003479	-0.002249
11126	11769636	0.075647	-9.736222	0.020796	-0.006613	0.000913	0.002086
11127	11769661	0.063621	-9.741998	-0.015017	-0.002068	0.002599	-0.000674
11128	11769686	0.059104	-9.732639	-0.009720	-0.001393	-0.002550	0.002694
11129	11769711	0.078104	-9.733152	0.008420	-0.000077	-0.003627	0.000313
11130	11769736	0.066997	-9.731829	0.036735	-0.003128	-0.002526	-0.002237
11131	11769761	0.087479	-9.757344	0.015505	-0.004755	-0.004174	-0.005513
11132	11769786	0.087896	-9.755314	0.007362	-0.003596	-0.006275	-0.001104
11133	11769811	0.090459	-9.756992	-0.005599	-0.005431	-0.004959	-0.003785
11134	11769836	0.073431	-9.734982	-0.000203	-0.001472	-0.002301	-0.000638
11135	11769861	0.113927	-9.755814	0.030713	-0.004129	-0.005127	0.002503
11136	11769886	0.108262	-9.743537	-0.001851	-0.006250	-0.000384	0.003578
11137	11769911	0.117058	-9.764469	0.008654	-0.003187	-0.000598	0.000487
11138	11769936	0.097747	-9.715282	0.034238	0.002776	-0.002685	-0.000310
11139	11769961	0.132497	-9.742493	0.011950	-0.002435	-0.002204	-0.002030
11140	11769986	0.086639	-9.697127	0.017456	-0.003026	-0.001368	0.000095
11141	11770011	0.115862	-9.731907	-0.011451	-0.003704	-0.000289	-0.001311
11142	11770036	0.103115	-9.755383	0.024543	-0.003749	-0.001454	-0.004838
11143	11770061	0.114491	-9.748228	0.000082	-0.002997	0.001872	0.002609
11144	11770086	0.104734	-9.728533	0.007223	-0.005960	0.002129	0.000122
11145	11770111	0.126214	-9.723912	0.001444	-0.003594	-0.002164	-0.005423
11146	11770136	0.129315	-9.733525	-0.019249	-0.006734	0.001846	-0.007446
11147	11770161	0.137773	-9.740917	0.005659	-0.005224	-0.003353	-0.004272
11148	11770186	0.149765	-9.750313	0.009881	-0.007077	-0.004998	0.000146
11149	11770211	0.116295	-9.736864	0.002346	-0.007436	0.000100	-0.002705
11150	11770236	0.110698	-9.758175	0.026807	-0.010143	-0.001302	-0.002195
11151	11770261	0.108191	-9.738005	0.008625	-0.010541	0.001271	-0.001085
11152	11770286	0.110887	-9.757762	-0.000456	-0.008163	-0.001404	-0.003612
11153	11770311	0.124160	-9.762012	0.009027	-0.009669	0.002265	0.000580
11154	11770336	0.113237	-9.766542	0.017764	-0.006306	0.003028	-0.001732
11155	11770361	0.080580	-9.723735	0.046742	-0.000970	-0.001259	0.002211
11156	11770386	0.111076	-9.753294	0.018272	-0.003774	-0.001761	0.005288
11157	11770411	0.101282	-9.747630	-0.019068	-0.002225	0.001754	0.002609
11158	11770436	0.068182	-9.752560	0.028560	-0.005226	-0.000630	0.001715
11159	11770461	0.062632	-9.743536	-0.007802	-0.001702	-0.003029	-0.001195
11160	11770486	0.070358	-9.764123	0.010838	-0.002627	0.000261	0.002414
11161	11770511	0.078869	-9.752596	0.008380	-0.002640	-0.005956	-0.002685
11162	11770536	0.052023	-9.731340	-0.007263	0.000612	0.000696	-0.002466
11163	11770561	0.070558	-9.735637	0.009443	0.001323	-0.005956	-0.004552
11164	11770586	0.051959	-9.725642	-0.007280	-0.000586	-0.001852	-0.002022
11165	11770611	0.060105	-9.728784	-0.013068	0.000402	-0.002928	-0.002678
11166	11770636	0.067914	-9.758025	0.013232	-0.001916	-0.004327	-0.000501
11167	11770661	0.074883	-9.743625	0.008434	0.000012	-0.002408	0.001626
11168	11770686	0.091229	-9.748453	-0.004170	-0.003858	0.002491	0.000826
11169	11770711	0.110341	-9.754615	0.010645	-0.000277	0.002356	-0.004700
11170	11770736	0.088237	-9.717340	0.037074	-0.003430	-0.002997	-0.001641
11171	11770761	0.094925	-9.741055	0.011177	-0.002936	0.003469	-0.005583
11172	11770786	0.090341	-9.729316	0.015995	-0.002302	-0.001605	0.004715
11173	11770811	0.118591	-9.728943	0.013434	-0.003885	-0.005274	-0.005698
11174	11770836	0.110185	-9.749005	0.015425	-0.000495	-0.002943	-0.003642
11175	11770861	0.126314	-9.745036	0.018680	-0.004409	0.001705	-0.003414
11176	11770886	0.106672	-9.741550	0.022042	-0.008827	0.001895	0.000836
11177	11770911	0.119083	-9.737003	0.014269	-0.011984	-0.001855	-0.001422
11178	11770936	0.116212	-9.731733	0.008114	-0.007559	0.002035	-0.002246
11179	11770961	0.122847	-9.736276	0.031080	-0.010179	-0.000475	-0.006938
11180	11770986	0.118295	-9.756130	0.023478	-0.007345	0.001593	-0.000393
11181	11771011	0.143741	-9.746176	0.045430	-0.005358	-0.002699	0.000796
11182	11771036	0.130162	-9.757214	0.041196	-0.003809	0.002745	-0.005016
11183	11771061	0.111973	-9.751129	0.033145	-0.004208	0.001779	0.001977
11184	11771086	0.123934	-9.748375	0.017237	-0.003944	0.001401	0.002034
11185	11771111	0.120390	-9.757167	-0.000992	-0.006704	-0.000855	-0.002201
11186	11771136	0.114754	-9.733902	0.024936	-0.007443	0.000153	-0.006238
11187	11771161	0.124614	-9.720230	0.007644	-0.001872	0.000523	0.000812
11188	11771186	0.108135	-9.730345	0.003878	-0.004242	-0.001787	-0.001952
11189	11771211	0.080894	-9.738708	0.032841	-0.001486	-0.003740	-0.001650
11190	11771236	0.081076	-9.728074	-0.011653	0.007334	-0.001384	-0.003007
11191	11771261	0.082899	-9.735600	0.017418	-0.005522	-0.004004	-0.003950
11192	11771286	0.099114	-9.732747	-0.001413	-0.010048	-0.000139	0.000122
11193	11771311	0.107444	-9.773104	-0.024410	-0.005932	0.000831	-0.003669
11194	11771336	0.075146	-9.754294	-0.007867	-0.003630	-0.000407	0.001836
11195	11771361	0.088295	-9.745378	0.008817	-0.002338	-0.003171	-0.001837
11196	11771386	0.075544	-9.746605	-0.014145	-0.005668	-0.001027	-0.000279
11197	11771411	0.103925	-9.765725	-0.012839	-0.003892	-0.002941	-0.004078
11198	11771436	0.094132	-9.753811	0.006898	-0.001106	-0.003797	-0.002876
11199	11771461	0.105246	-9.740030	0.014583	0.004601	-0.003819	0.002111
11200	11771486	0.107562	-9.764528	0.005461	0.003493	-0.001389	-0.001912
11201	11771511	0.111788	-9.767580	0.022608	0.000289	-0.003186	0.000265
11202	11771536	0.093733	-9.761375	0.004967	-0.001127	-0.001079	-0.002410
11203	11771561	0.090352	-9.753257	-0.000755	0.000329	-0.002342	-0.000368
11204	11771586	0.094640	-9.723550	0.014551	0.000556	0.000498	-0.001957
11205	11771611	0.078927	-9.731071	0.028042	-0.002992	-0.003187	-0.004847
11206	11771636	0.096143	-9.772121	0.026998	-0.004224	-0.002365	-0.002725
11207	11771661	0.106508	-9.752767	0.011141	-0.001195	0.000979	-0.006378
11208	11771686	0.115000	-9.752184	0.010576	-0.004792	-0.000560	-0.000919
11209	11771711	0.098848	-9.764088	0.031727	-0.006105	-0.001492	-0.001694
11210	11771736	0.125867	-9.757608	0.033540	-0.003625	-0.000601	0.000487
11211	11771761	0.115293	-9.738040	0.016349	-0.001712	-0.002639	-0.001456
11212	11771786	0.127971	-9.771718	0.026829	-0.004107	0.000493	0.003442
11213	11771811	0.122538	-9.716254	0.025378	-0.005652	-0.003356	0.001374
11214	11771836	0.117359	-9.745908	0.005754	-0.005545	-0.000967	-0.001377
11215	11771861	0.125993	-9.755820	0.009477	-0.009507	-0.003287	0.000226
11216	11771886	0.140498	-9.747841	0.027199	-0.008756	0.000024	0.004481
11217	11771911	0.109971	-9.740503	0.018694	-0.009954	-0.000639	0.005630
11218	11771936	0.134887	-9.748833	0.024811	-0.009628	-0.001423	-0.002262
11219	11771961	0.127131	-9.729524	-0.002482	-0.006512	0.001809	0.003648
11220	11771986	0.098805	-9.722686	0.023535	-0.011127	-0.002222	0.002040
11221	11772011	0.115057	-9.732759	0.043503	-0.014785	-0.002551	-0.002763
11222	11772036	0.097134	-9.707095	0.026860	-0.013870	-0.002457	0.002877
11223	11772061	0.082133	-9.757103	0.026932	-0.013071	0.000454	0.000328
11224	11772086	0.067759	-9.734122	0.000701	-0.006449	-0.000924	-0.006628
11225	11772111	0.100543	-9.739201	0.018784	-0.007243	0.001843	-0.005963
11226	11772136	0.087749	-9.751387	0.029319	-0.010541	0.001013	-0.001918
11227	11772161	0.088553	-9.746249	0.036001	-0.013161	-0.005291	-0.000666
11228	11772186	0.096707	-9.746422	0.022687	-0.002585	-0.002967	0.003491
11229	11772211	0.085548	-9.756237	0.004035	-0.004117	-0.005591	0.000334
11230	11772236	0.089893	-9.766329	0.015933	-0.006805	0.000830	0.002815
11231	11772261	0.069610	-9.730721	-0.002145	-0.007066	-0.003579	-0.002852
11232	11772286	0.091603	-9.745378	0.012165	-0.002733	0.001280	-0.001560
11233	11772311	0.100261	-9.753299	0.009215	-0.003386	-0.004672	-0.001459
11234	11772336	0.081595	-9.727973	-0.018031	-0.006594	-0.006482	-0.003064
11235	11772361	0.070143	-9.724182	-0.026668	-0.009835	-0.002916	-0.001751
11236	11772386	0.085718	-9.758936	-0.006052	-0.004224	-0.000365	-0.004193
11237	11772411	0.071525	-9.734106	0.002629	-0.005592	-0.005811	-0.004148
11238	11772436	0.112486	-9.735990	0.004838	-0.006229	0.002445	-0.000970
11239	11772461	0.070407	-9.724778	0.012680	-0.007480	-0.002681	-0.004002
11240	11772486	0.082159	-9.733664	-0.017488	-0.000994	0.000590	-0.006375
11241	11772511	0.111454	-9.758001	-0.015241	-0.001402	-0.006576	-0.000706
11242	11772536	0.107967	-9.754992	0.002486	-0.003397	-0.002214	-0.001901
11243	11772561	0.112988	-9.778290	0.009597	-0.007232	-0.004485	-0.002989
11244	11772586	0.104279	-9.729969	0.007298	-0.003590	0.002104	-0.001745
11245	11772611	0.127041	-9.762041	0.013425	-0.003020	-0.004025	-0.002679
11246	11772636	0.093446	-9.736019	-0.008415	0.000541	-0.000921	-0.000420
11247	11772661	0.105394	-9.731907	-0.020043	-0.004293	-0.003779	0.002396
11248	11772686	0.109140	-9.732014	-0.009973	-0.001271	-0.000305	0.000097
11249	11772711	0.117819	-9.751020	0.029815	0.001243	0.000699	-0.005549
11250	11772736	0.108832	-9.721725	0.030733	-0.004846	-0.000957	-0.003681
11251	11772761	0.111541	-9.746122	0.015890	-0.001973	-0.000444	0.001119
11252	11772786	0.121812	-9.736276	0.030648	-0.004673	0.000089	-0.000408
11253	11772811	0.109531	-9.769366	0.013032	-0.003751	-0.003201	-0.002734
11254	11772836	0.114051	-9.722632	0.032173	-0.003046	0.003216	-0.001864
11255	11772861	0.112894	-9.741090	0.028254	-0.007966	-0.003728	-0.005995
11256	11772886	0.087077	-9.731035	0.032257	-0.007595	-0.005469	-0.007348
11257	11772911	0.113033	-9.742663	0.007192	-0.005752	0.003617	-0.002883
11258	11772936	0.106148	-9.767467	0.010061	-0.009997	-0.001815	-0.000404
11259	11772961	0.111963	-9.737532	0.012490	-0.007504	0.002426	-0.002757
11260	11772986	0.106061	-9.726357	0.021092	-0.009637	0.001031	-0.000519
11261	11773011	0.093282	-9.727698	0.004865	-0.010741	-0.000665	-0.000776
11262	11773036	0.097937	-9.721166	0.016364	-0.006756	0.000823	-0.001997
11263	11773061	0.108909	-9.720362	0.003436	-0.003786	-0.001572	0.000997
11264	11773086	0.086196	-9.730739	0.012087	-0.009353	0.002000	-0.003271
11265	11773111	0.077951	-9.722721	0.008813	-0.007717	-0.000995	-0.000016
11266	11773136	0.092238	-9.756708	0.008736	-0.007716	0.005069	-0.002676
11267	11773161	0.103098	-9.743611	-0.000880	-0.005306	-0.000444	-0.002910
11268	11773186	0.102455	-9.738146	0.013008	-0.007990	0.001313	-0.004174
11269	11773211	0.103641	-9.761942	0.018772	-0.005753	-0.002256	0.001188
11270	11773236	0.124358	-9.747688	0.034509	-0.003585	0.006047	-0.003135
11271	11773261	0.106755	-9.735006	-0.001827	-0.002530	-0.002973	0.000858
11272	11773286	0.087558	-9.727465	0.016018	-0.002608	-0.000858	-0.005606
11273	11773311	0.098903	-9.752803	0.006764	-0.011055	0.001000	-0.004938
11274	11773336	0.081844	-9.734768	0.023699	-0.003624	-0.007260	-0.002240
11275	11773361	0.088753	-9.742515	0.008735	-0.008431	-0.000894	-0.003996
11276	11773386	0.108972	-9.765482	0.007276	-0.003909	-0.006032	0.001101
11277	11773411	0.115619	-9.762619	0.011536	-0.004292	-0.000100	-0.002594
11278	11773436	0.102931	-9.741527	0.017363	-0.002442	0.000317	-0.000989
11279	11773461	0.088462	-9.761618	0.016414	-0.007369	-0.002490	-0.005473
11280	11773486	0.112597	-9.749783	0.007221	-0.006203	-0.002386	0.000095
11281	11773511	0.099836	-9.724675	0.030284	-0.004230	-0.000234	-0.003354
11282	11773536	0.093125	-9.731120	0.042831	-0.002500	0.002193	-0.001679
11283	11773561	0.088225	-9.736798	0.005900	-0.004928	-0.002640	-0.006062
11284	11773586	0.098223	-9.747331	0.020775	-0.001593	-0.000578	-0.003944
11285	11773611	0.092032	-9.747486	0.026464	-0.006376	-0.000918	-0.003295
11286	11773636	0.114401	-9.737897	0.006791	-0.002086	-0.003232	-0.002290
11287	11773661	0.118620	-9.732103	0.003417	0.002094	-0.005738	-0.000264
11288	11773686	0.091657	-9.740228	-0.014690	-0.005038	-0.000688	0.000618
11289	11773711	0.083119	-9.734575	-0.018970	-0.002086	-0.003427	-0.005177
11290	11773736	0.093422	-9.734768	0.002564	-0.002827	-0.006214	-0.002365
11291	11773761	0.093729	-9.739852	-0.038171	-0.000972	0.000151	-0.001755
11292	11773786	0.116437	-9.739993	-0.009991	-0.002724	-0.001240	-0.002918
11293	11773811	0.097559	-9.749621	-0.016196	-0.003947	-0.001071	-0.002141
11294	11773836	0.127532	-9.759026	0.002919	-0.002217	-0.005241	-0.003517
11295	11773861	0.120487	-9.721881	-0.011442	0.000837	-0.002471	-0.002293
11296	11773886	0.111481	-9.736079	0.009681	-0.002377	-0.003754	0.000143
11297	11773911	0.116078	-9.754920	0.004755	-0.008385	-0.000373	-0.001879
11298	11773936	0.123231	-9.749870	-0.010061	-0.005382	-0.000125	-0.003615
11299	11773961	0.108590	-9.735296	0.018316	-0.001198	-0.003088	-0.004989
11300	11773986	0.122282	-9.750295	-0.014353	-0.002910	-0.003500	-0.002097
11301	11774011	0.142505	-9.758409	0.037293	-0.002445	-0.003618	0.002129
11302	11774036	0.107963	-9.755103	0.009159	-0.005190	-0.002517	-0.005674
11303	11774061	0.097775	-9.748626	0.012586	-0.005454	-0.001666	0.001253
11304	11774086	0.109412	-9.729177	0.022095	-0.005898	-0.000067	-0.002517
11305	11774111	0.119931	-9.738266	0.035978	-0.003207	0.004312	0.000958
11306	11774136	0.074604	-9.722352	0.013177	-0.004737	0.000218	0.000629
11307	11774161	0.117077	-9.766982	0.018245	-0.002900	-0.004028	-0.005178
11308	11774186	0.102476	-9.754695	0.040804	-0.009327	-0.000706	-0.001875
11309	11774211	0.110734	-9.751760	0.010650	-0.000001	-0.004028	-0.000249
11310	11774236	0.100451	-9.741418	0.039464	-0.001234	-0.001797	-0.004144
11311	11774261	0.087445	-9.728413	0.047201	-0.001001	0.000715	-0.007336
11312	11774286	0.075403	-9.722775	0.041414	-0.005127	0.000015	-0.001359
11313	11774311	0.071886	-9.739916	0.042454	-0.003518	-0.000422	-0.005479
11314	11774336	0.102557	-9.761792	0.039948	0.000282	-0.001253	-0.002474
11315	11774361	0.075998	-9.721099	0.024689	-0.003386	-0.002740	-0.004266
11316	11774386	0.082338	-9.740126	0.033801	-0.001243	-0.001143	-0.000739
11317	11774411	0.076170	-9.742594	0.034753	-0.003992	-0.001192	0.000425
11318	11774436	0.085431	-9.728916	0.047605	-0.007381	-0.003643	-0.001439
11319	11774461	0.094240	-9.733723	0.027462	-0.004053	-0.003916	-0.005108
11320	11774486	0.087587	-9.733194	0.018919	-0.001168	-0.003795	-0.001395
11321	11774511	0.096258	-9.726964	-0.009436	-0.001255	-0.000952	-0.003302
11322	11774536	0.108039	-9.770846	0.015378	-0.007084	-0.000988	-0.000468
11323	11774561	0.099819	-9.752279	0.004904	-0.006856	-0.004023	-0.000678
11324	11774586	0.084686	-9.724111	0.012195	-0.004646	-0.003280	-0.003177
11325	11774611	0.093010	-9.723918	-0.025241	-0.001647	-0.001033	-0.005291
11326	11774636	0.097719	-9.739101	0.009766	-0.001612	0.000134	-0.002079
11327	11774661	0.118941	-9.729987	0.020577	-0.007971	-0.003140	-0.000224
11328	11774686	0.117128	-9.766758	0.003852	-0.005056	-0.002307	-0.000931
11329	11774711	0.123718	-9.716683	-0.007693	-0.005259	-0.003926	-0.000364
11330	11774736	0.125075	-9.745173	-0.005292	-0.006810	-0.001705	-0.005415
11331	11774761	0.105218	-9.728563	0.008662	-0.006826	0.001015	-0.002378
11332	11774786	0.119258	-9.743857	-0.002916	-0.007838	-0.003198	0.000677
11333	11774811	0.118045	-9.734732	0.019670	-0.003611	-0.003509	-0.001137
11334	11774836	0.108040	-9.732066	0.023539	-0.005387	0.004269	-0.003459
11335	11774861	0.110936	-9.741592	0.028752	-0.008041	-0.007208	-0.000693
11336	11774886	0.144855	-9.741932	0.016609	-0.008979	0.004597	-0.001146
11337	11774911	0.122543	-9.753352	0.030699	-0.001594	-0.000381	-0.002280
11338	11774936	0.128836	-9.757500	0.028181	-0.010246	-0.000608	-0.006871
11339	11774961	0.120194	-9.742670	0.012877	-0.009197	0.000770	-0.007384
11340	11774986	0.122757	-9.756154	-0.002912	-0.008194	-0.000171	-0.002261
11341	11775011	0.083770	-9.734106	0.013573	-0.008786	0.000796	0.002885
11342	11775036	0.114464	-9.742540	-0.000002	-0.007166	-0.002283	0.000037
11343	11775061	0.134554	-9.752417	0.011411	-0.007957	0.000411	-0.001098
11344	11775086	0.106989	-9.751012	-0.010442	-0.003666	0.000957	0.003958
11345	11775111	0.081415	-9.735971	0.009330	-0.003842	-0.002085	0.002149
11346	11775136	0.068078	-9.725088	-0.000670	-0.000808	-0.003143	-0.002100
11347	11775161	0.096346	-9.758504	0.036942	-0.010002	-0.003883	-0.001502
11348	11775186	0.093483	-9.744853	0.010174	-0.008138	0.004420	-0.000693
11349	11775211	0.074091	-9.727955	0.037594	-0.005099	0.001109	-0.003026
11350	11775236	0.074395	-9.744758	0.018933	-0.003266	-0.004350	-0.003767
11351	11775261	0.110517	-9.743399	0.022549	-0.008260	-0.001976	0.000812
11352	11775286	0.085747	-9.731704	0.013188	-0.000793	-0.003536	-0.003187
11353	11775311	0.090859	-9.725033	0.015058	-0.000647	-0.002237	-0.005046
11354	11775336	0.070791	-9.720445	0.008954	0.000335	-0.004798	-0.000437
11355	11775361	0.067112	-9.729063	0.010874	0.000355	-0.001310	-0.001834
11356	11775386	0.078405	-9.751547	0.001208	-0.005196	-0.004062	-0.002730
11357	11775411	0.094360	-9.739733	0.017402	-0.004251	-0.001456	-0.002207
11358	11775436	0.101566	-9.740959	0.010667	-0.002104	0.003551	-0.003661
11359	11775461	0.080640	-9.734379	-0.002628	-0.000690	-0.000887	-0.004461
11360	11775486	0.073061	-9.739285	0.001748	0.000833	-0.002666	-0.006270
11361	11775511	0.104217	-9.731237	0.027929	-0.000760	-0.002824	-0.005820
11362	11775536	0.106181	-9.730099	0.016941	0.002737	-0.000115	-0.005689
11363	11775561	0.102257	-9.717578	0.002088	0.002305	-0.002047	-0.000945
11364	11775586	0.106554	-9.721375	0.005846	-0.002222	-0.004913	-0.001399
11365	11775611	0.103103	-9.754700	0.011094	-0.006329	0.001806	0.001529
11366	11775636	0.143745	-9.768562	0.019086	-0.002658	0.000764	-0.002074
11367	11775661	0.125975	-9.753919	0.009100	-0.001550	0.000404	0.000232
11368	11775686	0.129104	-9.736948	0.019144	-0.005120	-0.004646	-0.004664
11369	11775711	0.108572	-9.737653	0.017771	-0.006261	0.001611	0.000887
11370	11775736	0.115744	-9.738028	0.016782	-0.006497	0.002964	-0.000896
11371	11775761	0.111762	-9.725761	0.017771	-0.004280	-0.002685	-0.002086
11372	11775786	0.120955	-9.732092	0.004771	-0.007951	-0.001711	0.000043
11373	11775811	0.147064	-9.751427	-0.012661	-0.008166	0.003126	0.000450
11374	11775836	0.129285	-9.765244	0.038772	-0.006883	0.000823	-0.000592
11375	11775861	0.142052	-9.750069	0.018564	-0.008173	-0.000750	0.000875
11376	11775886	0.122544	-9.758224	0.039718	-0.010920	0.005206	-0.000364
11377	11775911	0.103457	-9.749310	0.030770	-0.004050	-0.001977	-0.005420
11378	11775936	0.109795	-9.761526	0.027791	-0.011779	-0.004369	-0.002335
11379	11775961	0.108478	-9.737022	0.038358	-0.008206	-0.001787	-0.001115
11380	11775986	0.112825	-9.748961	0.046436	-0.011609	0.002876	0.000268
11381	11776011	0.083951	-9.737794	0.006409	-0.004603	0.001633	-0.004311
11382	11776036	0.069103	-9.739171	0.021802	-0.005454	-0.000128	-0.005013
11383	11776061	0.088997	-9.772201	0.026890	-0.013353	0.003031	-0.001776
11384	11776086	0.074554	-9.724850	0.021364	-0.000627	-0.002554	0.000732
11385	11776111	0.087347	-9.753066	0.015978	-0.005916	-0.003101	0.001377
11386	11776136	0.074803	-9.735144	0.011741	-0.005443	-0.000060	-0.002907
11387	11776161	0.084945	-9.745412	0.008753	-0.007705	0.000480	-0.004758
11388	11776186	0.077157	-9.735764	0.023208	-0.005491	0.001228	-0.003852
11389	11776211	0.066378	-9.745974	-0.001210	-0.007559	-0.002027	-0.000338
11390	11776236	0.089552	-9.750610	0.042812	-0.004998	0.004411	0.001352
11391	11776261	0.084754	-9.735698	0.025068	-0.007895	-0.001524	-0.001554
11392	11776286	0.094196	-9.758078	0.006433	-0.000876	-0.003086	-0.005242
11393	11776311	0.071929	-9.759945	-0.014116	-0.004469	0.001378	-0.003345
11394	11776336	0.096574	-9.771156	0.026556	0.000575	-0.000015	-0.001062
11395	11776361	0.088173	-9.769428	-0.000789	-0.003254	-0.002669	-0.002672
11396	11776386	0.084234	-9.765190	-0.000742	-0.000870	0.001514	0.002417
11397	11776411	0.108036	-9.760348	0.011154	-0.001889	0.000577	-0.005220
11398	11776436	0.078087	-9.725893	-0.000685	0.001256	-0.001292	-0.000937
11399	11776461	0.086717	-9.731043	0.001279	0.008461	0.001737	-0.001903
11400	11776486	0.086771	-9.733879	0.001291	0.006731	0.003648	-0.002402
11401	11776511	0.119114	-9.740913	0.021686	0.006591	0.006229	-0.001749
11402	11776536	0.097115	-9.727203	0.006844	-0.002842	-0.003438	-0.001261
11403	11776561	0.119476	-9.737635	0.024959	-0.002557	-0.002392	-0.000425
11404	11776586	0.112002	-9.748316	0.034129	0.001168	0.001355	-0.002399
11405	11776611	0.100763	-9.756796	0.021283	0.001425	-0.002982	-0.004220
11406	11776636	0.095985	-9.717994	0.023653	0.000124	-0.006685	-0.006738
11407	11776661	0.125216	-9.735648	0.023496	-0.002947	-0.000148	-0.003622
11408	11776686	0.118996	-9.727071	0.015826	-0.001916	-0.000514	-0.003499
11409	11776711	0.121492	-9.736906	0.009560	-0.006175	0.002901	-0.002950
11410	11776736	0.092977	-9.715448	0.041327	-0.005277	0.000522	-0.005141
11411	11776761	0.085305	-9.706682	0.020838	-0.000232	0.001527	0.001258
11412	11776786	0.106137	-9.735383	0.022130	-0.003189	-0.002211	0.002979
11413	11776811	0.080991	-9.736395	0.005446	-0.004941	-0.003663	0.001691
11414	11776836	0.102283	-9.728247	0.017258	-0.010870	-0.004737	-0.000285
11415	11776861	0.110942	-9.748281	0.032102	-0.008854	0.000802	0.004415
11416	11776886	0.130339	-9.763021	0.018605	-0.007017	0.001469	0.002624
11417	11776911	0.111092	-9.740464	0.016273	-0.010724	0.000550	-0.005902
11418	11776936	0.107262	-9.746790	0.024502	-0.007185	0.002430	-0.000644
11419	11776961	0.102932	-9.783912	0.027841	-0.011933	-0.001597	-0.002959
11420	11776986	0.075286	-9.734577	0.005970	-0.007159	-0.004739	-0.002408
11421	11777011	0.102436	-9.736210	0.011008	-0.012031	-0.002113	-0.000206
11422	11777036	0.102181	-9.758544	0.013503	-0.006226	-0.003618	0.001691
11423	11777061	0.093476	-9.749222	0.016823	-0.013301	-0.002579	0.001782
11424	11777086	0.093183	-9.747479	-0.004688	-0.009397	-0.003172	-0.005279
11425	11777111	0.098699	-9.745831	0.016348	-0.011271	-0.004037	0.000040
11426	11777136	0.102228	-9.726010	0.025955	-0.005962	-0.004204	-0.002925
11427	11777161	0.105263	-9.727054	0.003477	-0.003125	0.001203	-0.004700
11428	11777186	0.107217	-9.741920	0.015927	-0.002624	-0.002074	-0.000487
11429	11777211	0.104616	-9.762865	0.018257	-0.006321	-0.000657	-0.000405
11430	11777236	0.107403	-9.760730	0.035990	-0.006348	0.001921	-0.006165
11431	11777261	0.108920	-9.756486	0.007767	-0.002623	-0.002532	-0.003114
11432	11777286	0.118098	-9.737515	0.016363	0.000045	0.000754	-0.000156
11433	11777311	0.100852	-9.724867	0.012121	-0.000139	0.004497	-0.001286
11434	11777336	0.093925	-9.741014	0.007923	0.003946	0.002831	0.000739
11435	11777361	0.109237	-9.737176	-0.013323	0.000975	-0.004984	-0.000709
11436	11777386	0.086934	-9.745604	-0.007902	0.000547	0.000891	-0.000286
11437	11777411	0.115013	-9.759087	0.028285	-0.006956	-0.002736	-0.000736
11438	11777436	0.111329	-9.734033	0.030827	0.000480	-0.001384	-0.004399
11439	11777461	0.079402	-9.729523	0.019962	0.003928	0.001335	-0.000864
11440	11777486	0.076208	-9.736120	0.014204	0.000991	-0.001042	-0.000615
11441	11777511	0.093926	-9.752732	0.029355	-0.004108	-0.004037	-0.001264
11442	11777536	0.102972	-9.748734	0.023132	-0.001761	0.001109	-0.000471
11443	11777561	0.107019	-9.733063	0.026364	-0.006843	-0.000076	0.001013
11444	11777586	0.103292	-9.731049	0.015398	-0.005552	0.001363	-0.001612
11445	11777611	0.078861	-9.729745	0.034662	-0.009963	0.001220	-0.001150
11446	11777636	0.099733	-9.753137	0.029844	-0.002716	0.002502	-0.005721
11447	11777661	0.102346	-9.725796	0.012476	-0.010291	0.001013	-0.006089
11448	11777686	0.097362	-9.723873	0.036899	-0.013535	-0.003433	-0.002836
11449	11777711	0.102628	-9.753829	0.015376	-0.010328	-0.003566	-0.001501
11450	11777736	0.124846	-9.748938	0.023944	-0.005059	-0.001855	0.002788
11451	11777761	0.118891	-9.731640	0.035419	-0.009467	-0.002392	-0.001629
11452	11777786	0.119750	-9.732265	0.046373	-0.013442	-0.002004	0.000565
11453	11777811	0.096621	-9.739454	0.031626	-0.014704	0.001395	-0.002037
11454	11777836	0.097308	-9.748729	0.018672	-0.016727	0.002585	-0.000618
11455	11777861	0.124453	-9.745902	0.010844	-0.016266	-0.003868	0.000052
11456	11777886	0.128891	-9.749411	-0.004438	-0.013836	0.000115	-0.003015
11457	11777911	0.114864	-9.741418	0.020063	-0.013675	-0.003703	-0.007324
11458	11777936	0.120765	-9.731145	0.035883	-0.008713	-0.003986	-0.000741
11459	11777961	0.129118	-9.756805	0.045003	-0.008225	-0.001200	-0.000338
11460	11777986	0.103648	-9.754128	0.003840	-0.013366	-0.000779	-0.001279
11461	11778011	0.127557	-9.760422	0.001403	-0.006205	-0.002459	-0.000867
11462	11778036	0.103416	-9.771019	-0.008103	-0.009391	-0.000636	0.001138
11463	11778061	0.102780	-9.757977	0.006795	-0.006332	-0.000791	-0.005019
11464	11778086	0.112015	-9.746117	0.015394	-0.003205	-0.003822	0.001493
11465	11778111	0.117791	-9.744948	0.005316	-0.002906	-0.005367	0.001229
11466	11778136	0.098388	-9.716696	0.003953	-0.004354	0.000161	0.000042
11467	11778161	0.090002	-9.732574	0.011172	-0.006275	-0.002140	-0.002913
11468	11778186	0.079651	-9.737895	0.008844	-0.004439	-0.003791	-0.003950
11469	11778211	0.076856	-9.737081	-0.015156	-0.005741	-0.007163	-0.000565
11470	11778236	0.118918	-9.761696	0.015301	-0.009243	-0.001484	-0.002711
11471	11778261	0.085963	-9.755063	0.020284	-0.006559	-0.003438	-0.002983
11472	11778286	0.084134	-9.756851	0.011737	-0.001647	-0.002834	-0.002281
11473	11778311	0.092767	-9.750092	-0.020492	-0.004923	0.001831	-0.000905
11474	11778336	0.087739	-9.732300	-0.009011	-0.010994	0.001200	-0.002493
11475	11778361	0.074534	-9.745443	0.002135	-0.007050	0.002043	-0.003847
11476	11778386	0.101342	-9.756851	-0.005646	-0.004174	-0.003584	0.001366
11477	11778411	0.099820	-9.752874	0.012602	-0.002845	-0.001633	-0.004649
11478	11778436	0.080070	-9.740252	0.009301	-0.006004	-0.002776	-0.001119
11479	11778461	0.098665	-9.742451	0.012560	-0.005831	0.000133	-0.001043
11480	11778486	0.106663	-9.738141	0.016373	-0.005646	-0.001542	0.001451
11481	11778511	0.114494	-9.735256	0.051794	-0.003989	-0.001445	0.000992
11482	11778536	0.113135	-9.733212	0.041222	-0.006619	-0.001110	0.000745
11483	11778561	0.087473	-9.729512	0.025940	-0.012739	-0.000183	-0.001602
11484	11778586	0.111295	-9.738059	0.046015	-0.009544	0.000067	0.000696
11485	11778611	0.096094	-9.723425	0.007348	-0.003727	-0.001767	-0.001697
11486	11778636	0.127925	-9.725648	0.023881	-0.007004	0.002953	-0.001031
11487	11778661	0.127970	-9.736188	0.030211	-0.002058	-0.001338	0.004710
11488	11778686	0.111567	-9.750186	0.032650	-0.004229	-0.000365	-0.003871
11489	11778711	0.115952	-9.753150	0.013001	-0.003572	-0.004736	-0.000113
11490	11778736	0.130988	-9.748583	0.036399	-0.002950	-0.002210	-0.002734
11491	11778761	0.101201	-9.724776	0.037947	-0.005502	-0.002453	-0.004584
11492	11778786	0.124412	-9.741563	0.006188	-0.006549	-0.001237	0.001262
11493	11778811	0.121194	-9.751111	0.008104	-0.008392	0.000277	0.000249
11494	11778836	0.097754	-9.734302	0.006373	-0.005308	-0.002843	-0.006959
11495	11778861	0.118591	-9.740496	0.024960	-0.005263	0.000268	-0.002268
11496	11778886	0.088375	-9.722257	0.017924	-0.001636	-0.003022	-0.000940
11497	11778911	0.092668	-9.720808	0.019401	0.000742	-0.001118	-0.001000
11498	11778936	0.100435	-9.730607	0.015418	-0.004503	0.002545	-0.002249
11499	11778961	0.122582	-9.747762	0.006722	-0.003232	-0.001307	-0.001447
11500	11778986	0.118403	-9.756075	0.019216	-0.000747	-0.001141	-0.005810
11501	11779011	0.081462	-9.739534	0.025121	-0.004245	-0.001851	-0.003938
11502	11779036	0.091197	-9.750698	0.018356	-0.006442	0.000760	-0.005202
11503	11779061	0.101170	-9.746085	0.003847	-0.007688	-0.004427	-0.003567
11504	11779086	0.081950	-9.732562	0.003487	-0.010258	-0.003955	-0.001688
11505	11779111	0.090920	-9.725648	-0.006082	-0.003001	-0.002138	0.002724
11506	11779136	0.101233	-9.755212	0.011589	-0.005735	-0.005168	-0.001714
11507	11779161	0.086775	-9.745197	0.027510	-0.002845	0.002629	-0.005978
11508	11779186	0.093576	-9.755409	0.017795	-0.012358	-0.000051	-0.002055
11509	11779211	0.069811	-9.739070	-0.015579	-0.006542	-0.000148	-0.004500
11510	11779236	0.080922	-9.739161	0.031312	-0.006764	-0.000790	-0.001816
11511	11779261	0.092402	-9.741324	0.026916	-0.010028	-0.005116	-0.003044
11512	11779286	0.091479	-9.740246	0.017782	-0.013086	-0.003551	-0.002581
11513	11779311	0.073068	-9.721130	0.025114	-0.008233	-0.000553	0.001533
11514	11779336	0.076120	-9.729015	0.015965	-0.011635	-0.002360	0.001270
11515	11779361	0.083483	-9.747356	0.011203	-0.005952	-0.002192	0.000936
11516	11779386	0.083996	-9.736002	-0.017535	-0.002880	-0.001949	0.002141
11517	11779411	0.111457	-9.761805	-0.014834	-0.004323	-0.001061	0.000159
11518	11779436	0.099945	-9.754354	-0.015202	-0.003007	-0.004147	0.000468
11519	11779461	0.101902	-9.732972	0.015437	-0.005123	-0.004579	-0.003248
11520	11779486	0.127541	-9.731905	0.028809	0.001071	-0.001696	-0.003122
11521	11779511	0.121474	-9.713668	0.041729	-0.002673	-0.002658	-0.001191
11522	11779536	0.130417	-9.763948	0.016717	-0.004965	-0.001286	-0.004457
11523	11779561	0.115188	-9.734863	0.026435	-0.002441	0.000060	-0.001565
11524	11779586	0.105545	-9.754568	0.003905	-0.006013	-0.006653	-0.001590
11525	11779611	0.096730	-9.727518	-0.004145	-0.001512	-0.005227	-0.003323
11526	11779636	0.120737	-9.747748	0.003868	-0.001515	0.001109	-0.002782
11527	11779661	0.110911	-9.758973	-0.014250	-0.000206	0.000496	0.001509
11528	11779686	0.118834	-9.752184	0.013927	-0.004038	0.001836	-0.002450
11529	11779711	0.121085	-9.749943	0.024483	-0.001585	-0.000632	-0.001888
11530	11779736	0.101007	-9.748822	0.027441	-0.000018	-0.003706	0.000459
11531	11779761	0.092203	-9.750460	0.003522	-0.004420	-0.002369	-0.003430
11532	11779786	0.087707	-9.745103	0.021767	-0.002719	0.000829	-0.002137
11533	11779811	0.064133	-9.726799	0.015700	0.001013	-0.001819	-0.000678
11534	11779836	0.097919	-9.733952	0.045701	-0.000878	-0.000556	0.000738
11535	11779861	0.114948	-9.747081	0.017717	-0.005509	-0.000191	-0.003941
11536	11779886	0.083624	-9.715587	0.011760	0.000261	-0.000218	-0.003371
11537	11779911	0.086926	-9.750269	0.017442	-0.000665	0.000215	-0.007536
11538	11779936	0.098434	-9.728437	0.026475	-0.004703	-0.001402	-0.002085
11539	11779961	0.089737	-9.741400	-0.001761	-0.006229	0.000182	-0.005218
11540	11779986	0.069197	-9.743744	0.011742	-0.005864	-0.002970	-0.001062
11541	11780011	0.091106	-9.746814	0.012617	-0.004184	-0.001450	-0.001705
11542	11780036	0.097102	-9.753889	-0.016614	-0.001839	0.003500	0.000498
11543	11780061	0.085128	-9.753357	0.000646	-0.005066	0.001949	-0.004436
11544	11780086	0.102174	-9.753881	0.018316	-0.003910	-0.000161	-0.004651
11545	11780111	0.096290	-9.745930	0.021187	-0.005437	-0.004902	-0.003381
11546	11780136	0.072802	-9.723382	0.016484	-0.009634	-0.005890	-0.007865
11547	11780161	0.106820	-9.743553	-0.001894	-0.007729	-0.004674	0.002329
11548	11780186	0.099220	-9.754056	0.027395	-0.006564	-0.001302	-0.001311
11549	11780211	0.092393	-9.743834	0.035603	-0.006539	-0.000077	-0.002456
11550	11780236	0.105181	-9.738731	0.023068	-0.006543	-0.001293	0.002603
11551	11780261	0.112237	-9.761774	0.015362	-0.005792	0.000976	-0.001045
11552	11780286	0.111151	-9.749029	0.018247	-0.008011	0.002158	-0.002700
11553	11780311	0.100124	-9.743320	0.008742	-0.004227	-0.001840	0.000991
11554	11780336	0.122388	-9.764372	0.007167	-0.003533	-0.002027	-0.003962
11555	11780361	0.092422	-9.742743	0.026001	-0.004548	-0.006507	-0.003140
11556	11780386	0.118342	-9.755699	0.025450	-0.004677	-0.002570	-0.005491
11557	11780411	0.131484	-9.772253	0.002330	-0.005868	-0.000831	0.000162
11558	11780436	0.108248	-9.754485	0.031261	-0.000533	-0.001326	0.000022
11559	11780461	0.097668	-9.738218	0.013533	-0.002530	-0.003301	-0.001460
11560	11780486	0.093452	-9.726475	-0.012796	-0.003155	0.002305	-0.004315
11561	11780511	0.116907	-9.750475	-0.006155	-0.001375	0.001323	0.003496
11562	11780536	0.124863	-9.747100	0.027336	-0.000958	0.001769	-0.001116
11563	11780561	0.085187	-9.730202	0.007442	0.002094	-0.001208	0.002195
11564	11780586	0.090531	-9.746099	0.027485	-0.004084	-0.000417	0.001316
11565	11780611	0.093968	-9.747225	0.010739	-0.001296	0.000803	0.001891
11566	11780636	0.081525	-9.737365	0.007370	-0.004539	-0.000562	-0.003812
11567	11780661	0.110555	-9.741515	0.023055	-0.005177	0.001431	-0.002454
11568	11780686	0.092999	-9.747833	0.018354	-0.003591	0.000301	-0.000413
11569	11780711	0.095544	-9.723675	0.023633	-0.001663	-0.004452	-0.003073
11570	11780736	0.102369	-9.743327	0.041755	-0.008009	-0.000103	-0.004569
11571	11780761	0.122952	-9.748041	0.025922	-0.002228	0.001490	0.000736
11572	11780786	0.094059	-9.743130	-0.008425	0.004041	-0.000337	-0.000374
11573	11780811	0.098436	-9.726381	0.016874	-0.004146	-0.000484	0.000796
11574	11780836	0.109281	-9.757185	0.023087	-0.003321	-0.002345	-0.000557
11575	11780861	0.113607	-9.754091	0.010133	-0.000717	0.000292	-0.000995
11576	11780886	0.101679	-9.745961	-0.003767	-0.005612	-0.000831	-0.001439
11577	11780911	0.097417	-9.724134	0.024071	-0.005339	0.007187	0.001489
11578	11780936	0.074958	-9.725642	0.042407	-0.005007	0.002405	-0.000715
11579	11780961	0.086850	-9.747780	0.010622	-0.012177	-0.003791	-0.000224
11580	11780986	0.069076	-9.734660	0.006916	-0.008248	-0.000164	0.001971
11581	11781011	0.069929	-9.727585	0.009358	-0.006135	0.003877	-0.001025
11582	11781036	0.083762	-9.731764	0.015500	-0.006531	0.002125	0.000760
11583	11781061	0.104179	-9.728807	0.024040	-0.005546	-0.003095	-0.002542
11584	11781086	0.085257	-9.713101	0.037539	-0.006641	-0.000393	0.000046
11585	11781111	0.106011	-9.760493	0.019660	-0.009915	-0.000459	-0.000402
11586	11781136	0.073054	-9.746522	0.009832	-0.004008	-0.000870	-0.001566
11587	11781161	0.104316	-9.764409	-0.005183	-0.003815	0.000878	-0.002013
11588	11781186	0.116023	-9.761946	0.029773	-0.002415	0.000961	-0.004004
11589	11781211	0.097288	-9.744470	0.018824	-0.002836	-0.006089	-0.004426
11590	11781236	0.093433	-9.739683	0.013103	-0.004540	-0.004566	-0.003512
11591	11781261	0.111231	-9.754186	0.013976	-0.003970	0.001644	-0.004254
11592	11781286	0.084765	-9.733075	0.008813	-0.003994	-0.001319	-0.000551
11593	11781311	0.104368	-9.740037	0.014034	0.001313	0.002976	-0.000986
11594	11781336	0.125900	-9.755500	0.019130	-0.003582	0.002311	0.003062
11595	11781361	0.122012	-9.745068	0.016796	-0.003427	-0.003186	-0.001779
11596	11781386	0.102197	-9.714830	0.008768	0.000232	0.002825	0.000550
11597	11781411	0.094670	-9.725386	0.010205	-0.003928	0.002949	0.000501
11598	11781436	0.117368	-9.756647	0.025397	-0.004353	-0.004497	-0.002943
11599	11781461	0.105051	-9.762650	0.035538	-0.005785	0.000125	-0.005281
11600	11781486	0.114330	-9.734671	0.012985	-0.003777	-0.000356	-0.004268
11601	11781511	0.129554	-9.767878	-0.005754	-0.000848	0.000548	0.001572
11602	11781536	0.107180	-9.768319	0.003949	-0.001329	-0.000630	-0.002415
11603	11781561	0.097486	-9.767765	0.022231	-0.002024	-0.000963	-0.001323
11604	11781586	0.111631	-9.719931	0.039808	-0.003496	-0.001256	-0.003819
11605	11781611	0.090864	-9.726705	0.000672	-0.002754	-0.001542	0.005285
11606	11781636	0.103458	-9.745354	0.019719	-0.004293	-0.001977	-0.002033
11607	11781661	0.103734	-9.752428	-0.013797	-0.005351	0.003111	-0.002125
11608	11781686	0.096552	-9.748286	-0.011915	-0.007798	-0.002813	-0.002855
11609	11781711	0.112818	-9.760541	-0.002382	-0.006963	-0.002536	0.000541
11610	11781736	0.095639	-9.733558	0.017905	-0.000994	-0.000678	0.001566
11611	11781761	0.088111	-9.737492	0.020765	-0.005428	-0.000510	-0.002085
11612	11781786	0.077052	-9.734063	0.035738	-0.000484	-0.003332	-0.005189
11613	11781811	0.081967	-9.750628	0.037124	-0.002564	-0.006334	-0.001864
11614	11781836	0.120680	-9.759003	0.027290	-0.006223	-0.001679	0.001052
11615	11781861	0.077238	-9.710145	0.023235	-0.002913	0.003354	0.000885
11616	11781886	0.087680	-9.747118	0.029905	-0.003310	-0.007123	-0.001736
11617	11781911	0.091882	-9.730684	0.013070	-0.007120	-0.003962	-0.002991
11618	11781936	0.109726	-9.751349	0.013949	-0.003076	-0.004339	-0.001469
11619	11781961	0.063009	-9.715069	0.024206	-0.007071	-0.003050	0.001697
11620	11781986	0.106590	-9.737849	0.028328	-0.007930	-0.000091	0.001010
11621	11782011	0.109046	-9.732795	0.010086	-0.006777	-0.002339	0.000539
11622	11782036	0.112815	-9.737789	0.029707	-0.007264	-0.005324	-0.001526
11623	11782061	0.114733	-9.737164	0.021077	-0.008802	0.001052	-0.000976
11624	11782086	0.104540	-9.755320	0.020633	-0.010075	-0.001565	-0.002651
11625	11782111	0.102473	-9.747879	0.029290	-0.007083	0.000945	-0.003926
11626	11782136	0.132436	-9.772253	0.002848	-0.004375	-0.003396	0.000465
11627	11782161	0.080930	-9.737581	0.021287	-0.006989	-0.001694	0.000805
11628	11782186	0.108961	-9.727651	0.014886	-0.006033	0.000387	-0.000155
11629	11782211	0.116265	-9.734959	0.002365	-0.009336	-0.002642	-0.001955
11630	11782236	0.112144	-9.742874	-0.011040	-0.008869	-0.000758	0.002034
11631	11782261	0.118412	-9.748608	-0.003417	-0.010340	-0.001115	-0.002013
11632	11782286	0.112547	-9.779114	0.000982	-0.007392	0.002885	-0.000073
11633	11782311	0.103503	-9.739256	-0.006227	-0.010489	0.001730	0.000767
11634	11782336	0.115476	-9.763871	-0.031561	-0.001921	-0.004461	-0.004101
11635	11782361	0.130270	-9.744054	-0.012030	-0.004941	-0.001788	-0.000164
11636	11782386	0.092831	-9.724158	-0.009429	-0.001915	-0.002509	-0.000368
11637	11782411	0.105628	-9.750150	-0.005687	-0.004913	-0.000764	-0.004011
11638	11782436	0.113006	-9.744567	0.007754	-0.001727	-0.000109	0.000669
11639	11782461	0.091519	-9.767365	-0.008843	0.003240	0.002746	-0.002022
11640	11782486	0.103812	-9.771824	0.013561	0.002223	0.002538	-0.000927
11641	11782511	0.111089	-9.750957	0.020160	-0.006263	-0.002326	0.001313
11642	11782536	0.093530	-9.758491	0.033334	0.003771	0.002110	-0.001392
11643	11782561	0.092230	-9.735769	0.036145	-0.001431	0.001059	0.001059
11644	11782586	0.104556	-9.750412	0.010665	-0.000647	-0.000171	-0.005044
11645	11782611	0.094541	-9.752411	0.008841	0.000359	-0.003441	-0.000314
11646	11782636	0.099089	-9.744596	0.028916	-0.000171	-0.000541	0.000407
11647	11782661	0.109952	-9.742605	0.031770	0.002719	0.001124	0.000988
11648	11782686	0.085175	-9.742051	0.038062	-0.001988	-0.001934	-0.000235
11649	11782711	0.089826	-9.741841	0.058671	-0.003570	-0.002807	-0.003503
11650	11782736	0.082901	-9.721088	0.060672	0.002527	-0.007348	-0.002520
11651	11782761	0.107335	-9.729600	0.048013	-0.002626	-0.002132	-0.000946
11652	11782786	0.099693	-9.723854	0.038927	-0.003925	-0.001577	-0.001384
11653	11782811	0.069684	-9.732014	0.051533	-0.005695	0.000209	0.001459
11654	11782836	0.087551	-9.726546	0.018338	-0.008899	-0.002386	-0.004067
11655	11782861	0.093375	-9.756735	0.042749	-0.009216	-0.003988	0.003493
11656	11782886	0.097950	-9.731746	0.026421	-0.010340	-0.001042	0.000434
11657	11782911	0.092330	-9.735596	0.024606	-0.002886	0.000057	-0.002791
11658	11782936	0.084019	-9.723425	0.029380	-0.007311	-0.003441	0.002208
11659	11782961	0.090330	-9.728551	0.027447	-0.004408	-0.002429	-0.001198
11660	11782986	0.102666	-9.712786	-0.000884	-0.004479	-0.000292	-0.000606
11661	11783011	0.130407	-9.755810	-0.019230	-0.005673	-0.000699	0.002539
11662	11783036	0.104361	-9.730255	-0.004789	-0.011609	-0.003333	0.000036
11663	11783061	0.088383	-9.746057	-0.008522	-0.009486	0.002262	-0.002760
11664	11783086	0.113555	-9.744483	0.002328	-0.011589	-0.000037	-0.000839
11665	11783111	0.111165	-9.748899	0.010036	-0.012966	-0.003289	-0.001819
11666	11783136	0.101555	-9.745711	0.011503	-0.013225	-0.002898	0.001453
11667	11783161	0.138374	-9.759153	0.020379	-0.017105	0.000322	0.000641
11668	11783186	0.120400	-9.735300	0.027639	-0.017616	0.000377	-0.000447
11669	11783211	0.125550	-9.747050	-0.006326	-0.011081	-0.000092	-0.002386
11670	11783236	0.082112	-9.754978	-0.051174	-0.010908	0.000425	-0.003214
11671	11783261	0.131847	-9.752171	-0.007687	-0.002638	0.001922	-0.005668
11672	11783286	0.099932	-9.734619	0.029233	-0.010943	0.005917	-0.003631
11673	11783311	0.119057	-9.741338	0.019075	-0.013193	0.004730	0.003803
11674	11783336	0.089734	-9.738379	-0.013371	-0.013758	-0.002460	-0.000206
11675	11783361	0.093340	-9.761990	-0.017650	-0.010559	0.002189	0.000767
11676	11783386	0.105779	-9.740555	0.018286	-0.006118	-0.002915	-0.000681
11677	11783411	0.142856	-9.742707	0.033953	-0.001131	-0.000620	0.000919
11678	11783436	0.117075	-9.744626	0.046019	-0.006144	-0.004202	0.000018
11679	11783461	0.109084	-9.732657	0.001472	-0.005865	-0.000896	-0.000547
11680	11783486	0.096678	-9.738236	0.014502	-0.003442	0.001667	-0.000215
11681	11783511	0.092035	-9.743023	0.013623	-0.002266	-0.003366	-0.001912
11682	11783536	0.118908	-9.757421	0.014462	0.002551	-0.002113	-0.004998
11683	11783561	0.100693	-9.728712	0.046626	-0.001077	-0.002369	-0.000824
11684	11783586	0.067735	-9.722878	0.041965	-0.005025	-0.000554	0.004405
11685	11783611	0.128271	-9.740520	0.002789	-0.008774	-0.004379	-0.002030
11686	11783636	0.132083	-9.725889	-0.019659	-0.001487	-0.004393	-0.007308
11687	11783661	0.080500	-9.721618	0.000688	-0.003779	-0.004755	-0.008003
11688	11783686	0.108812	-9.748699	-0.004676	-0.000183	0.004189	0.002798
11689	11783711	0.109463	-9.732401	0.015429	-0.000367	-0.000542	0.000025
11690	11783736	0.115564	-9.750109	-0.000455	-0.002950	-0.006343	-0.003020
11691	11783761	0.087977	-9.723263	0.021293	-0.003506	-0.007135	-0.005902
11692	11783786	0.087575	-9.727335	0.007797	-0.007118	0.002371	-0.002128
11693	11783811	0.086868	-9.737515	-0.009910	-0.006489	-0.001496	-0.000739
11694	11783836	0.098545	-9.743768	0.036988	-0.007218	0.001401	-0.001998
11695	11783861	0.120812	-9.761763	0.021040	-0.008346	0.002669	-0.002441
11696	11783886	0.092913	-9.725671	-0.004271	-0.010921	0.000551	-0.006416
11697	11783911	0.070445	-9.731543	0.021367	-0.003242	0.000882	-0.003868
11698	11783936	0.092800	-9.725533	0.018224	-0.013344	-0.001495	-0.005461
11699	11783961	0.086435	-9.746111	-0.006623	-0.011322	0.003985	0.000398
11700	11783986	0.060168	-9.718908	0.024646	-0.012036	0.000221	0.001605
11701	11784011	0.092712	-9.762108	0.021148	-0.011237	0.000875	-0.002575
11702	11784036	0.115728	-9.764832	0.000390	-0.013816	0.001538	-0.000702
11703	11784061	0.099107	-9.747416	0.027401	-0.008531	0.000606	-0.000335
11704	11784086	0.100788	-9.740164	0.050815	-0.009738	0.002395	-0.000127
11705	11784111	0.106473	-9.758025	0.013466	-0.007474	-0.002667	-0.000295
11706	11784136	0.087545	-9.738638	0.033659	-0.009283	0.000139	-0.000137
11707	11784161	0.092920	-9.734339	0.004425	-0.008005	-0.000098	-0.000848
11708	11784186	0.089005	-9.729153	0.003919	-0.007682	-0.001962	0.002086
11709	11784211	0.118233	-9.732919	-0.006219	-0.007279	0.005400	-0.003712
11710	11784236	0.133494	-9.751063	0.015247	-0.009738	-0.001867	0.001067
11711	11784261	0.146482	-9.744835	-0.010189	-0.004724	-0.002562	0.000343
11712	11784286	0.120070	-9.735507	0.010038	-0.006402	0.003932	-0.000837
11713	11784311	0.150210	-9.744577	0.007541	-0.003134	-0.000343	-0.003183
11714	11784336	0.122222	-9.734476	0.037867	-0.003941	0.003266	0.000627
11715	11784361	0.125419	-9.750271	0.018646	-0.006270	-0.002071	0.000544
11716	11784386	0.106681	-9.743423	0.021138	-0.005047	0.000092	0.004399
11717	11784411	0.088588	-9.735531	0.016935	-0.007276	-0.002933	-0.002085
11718	11784436	0.103026	-9.754526	0.030255	-0.004916	0.001568	0.000498
11719	11784461	0.119100	-9.770054	0.003870	-0.003110	-0.000983	-0.000420
11720	11784486	0.105031	-9.747255	-0.009484	-0.002982	-0.000717	0.001888
11721	11784511	0.097047	-9.758536	0.007837	-0.001037	-0.000180	-0.006063
11722	11784536	0.097007	-9.762041	0.020260	-0.004357	-0.002171	-0.003186
11723	11784561	0.097447	-9.760070	0.015454	-0.005174	-0.000629	-0.002407
11724	11784586	0.100014	-9.758699	-0.010458	-0.005706	-0.006266	-0.002818
11725	11784611	0.095032	-9.744756	0.004861	-0.010602	-0.001580	-0.007775
11726	11784636	0.064332	-9.741455	0.012795	-0.000575	-0.001971	0.001428
11727	11784661	0.068335	-9.746915	0.000319	0.000376	-0.002086	-0.002871
11728	11784686	0.078093	-9.729438	0.013214	0.000244	-0.000158	-0.005363
11729	11784711	0.092282	-9.759969	0.004948	-0.003652	0.002111	-0.002518
11730	11784736	0.062100	-9.741789	0.001300	-0.001420	-0.002055	-0.002861
11731	11784761	0.070566	-9.735060	0.002747	0.004140	-0.001504	-0.002681
11732	11784786	0.106826	-9.739386	0.004839	-0.004867	-0.004376	-0.003770
11733	11784811	0.099453	-9.734524	0.022701	-0.001591	0.004022	-0.000851
11734	11784836	0.101166	-9.717381	0.019290	0.000854	-0.002591	0.000773
11735	11784861	0.114116	-9.758900	0.014452	-0.002050	-0.000191	-0.003053
11736	11784886	0.101656	-9.754560	0.031250	-0.002153	-0.005560	-0.006609
11737	11784911	0.084775	-9.722061	0.064409	-0.006339	-0.001943	0.000028
11738	11784936	0.074503	-9.726119	0.041939	-0.005107	-0.000374	-0.000861
11739	11784961	0.099374	-9.731938	0.039850	-0.008629	-0.002569	-0.001763
11740	11784986	0.123025	-9.749339	0.017735	-0.006473	-0.002080	-0.002727
11741	11785011	0.121012	-9.735559	0.013855	-0.007683	-0.002426	-0.004521
11742	11785036	0.116501	-9.735038	0.039264	-0.010188	0.000380	0.000818
11743	11785061	0.097684	-9.738213	0.013949	-0.011215	0.000229	-0.001615
11744	11785086	0.144796	-9.747850	0.031496	-0.006334	0.000064	0.001517
11745	11785111	0.124381	-9.748591	0.031567	-0.010006	-0.001690	-0.001371
11746	11785136	0.130179	-9.752941	0.011348	-0.012895	-0.005475	0.001119
11747	11785161	0.127356	-9.754616	0.024385	-0.006576	-0.000980	-0.001885
11748	11785186	0.132810	-9.735977	0.020063	-0.005887	-0.000122	0.000033
11749	11785211	0.114268	-9.733277	0.014850	-0.006031	0.000387	-0.000469
11750	11785236	0.109791	-9.749687	-0.002356	-0.006917	-0.000145	-0.001688
11751	11785261	0.092128	-9.751993	0.010717	-0.003430	-0.000726	0.001572
11752	11785286	0.129524	-9.761095	-0.015475	-0.012295	0.000218	0.002299
11753	11785311	0.117562	-9.747195	-0.034041	-0.008106	-0.000677	0.002287
11754	11785336	0.092338	-9.764183	0.001568	-0.006589	-0.000203	0.000806
11755	11785361	0.109924	-9.759760	0.005338	-0.004728	-0.000435	-0.001760
11756	11785386	0.102328	-9.745132	-0.026290	-0.006260	-0.002788	-0.002667
11757	11785411	0.120464	-9.756003	-0.014344	-0.003013	-0.002211	-0.002801
11758	11785436	0.093433	-9.736233	0.004997	0.000124	-0.004360	-0.004035
11759	11785461	0.081679	-9.750122	0.004060	-0.001188	0.001122	-0.000349
11760	11785486	0.102828	-9.756796	-0.008465	-0.000243	-0.002877	-0.003579
11761	11785511	0.092227	-9.750307	-0.006491	0.000781	-0.004725	-0.000514
11762	11785536	0.097339	-9.751999	0.015940	-0.004101	0.000232	-0.000414
11763	11785561	0.079520	-9.736544	0.013661	-0.000989	-0.001007	0.002137
11764	11785586	0.092089	-9.756642	0.034729	-0.000319	-0.002426	-0.002676
11765	11785611	0.059707	-9.716529	0.022902	0.001320	-0.005692	-0.003465
11766	11785636	0.066046	-9.723938	0.016599	-0.001499	-0.003149	0.001548
11767	11785661	0.084952	-9.758986	0.027567	0.001253	-0.003165	0.001094
11768	11785686	0.079724	-9.755158	0.021839	-0.001676	-0.006126	-0.002050
11769	11785711	0.109440	-9.745270	0.051373	-0.002803	-0.010993	-0.000925
11770	11785736	0.099533	-9.750056	0.045173	-0.002386	-0.010012	-0.001375
11771	11785761	0.107772	-9.754914	0.027944	-0.000532	-0.014050	0.000018
11772	11785786	0.116708	-9.755111	0.048484	-0.001237	-0.014064	-0.000754
11773	11785811	0.079070	-9.749192	0.034835	0.001416	-0.014719	0.001103
11774	11785836	0.142155	-9.768921	0.041175	0.000192	-0.012745	-0.000820
11775	11785861	0.110901	-9.746164	0.048055	0.000693	-0.009827	0.001253
11776	11785886	0.125775	-9.746246	0.034516	0.000569	-0.008415	-0.004004
11777	11785911	0.116865	-9.719229	0.029294	-0.003789	-0.016242	-0.000373
11778	11785936	0.120029	-9.743327	0.025437	-0.003412	-0.007577	0.000378
11779	11785961	0.114946	-9.757773	0.035047	-0.005022	-0.009874	-0.002837
11780	11785986	0.113997	-9.744967	0.003397	-0.003804	-0.011908	-0.001121
11781	11786011	0.115096	-9.724848	0.022604	-0.001751	-0.010075	-0.004129
11782	11786036	0.122526	-9.740798	0.017229	-0.005443	-0.004520	-0.005506
11783	11786061	0.094901	-9.741902	0.004404	-0.009532	-0.004779	-0.003117
11784	11786086	0.102540	-9.755404	0.025896	-0.011539	-0.003515	0.001895
11785	11786111	0.106920	-9.756207	0.019262	-0.004223	-0.002101	0.000216
11786	11786136	0.098267	-9.749728	0.022658	-0.005029	-0.001279	-0.002792
11787	11786161	0.102237	-9.765345	0.023053	-0.007604	-0.004876	-0.001585
11788	11786186	0.111106	-9.748207	0.027301	-0.010325	-0.008161	-0.004739
11789	11786211	0.084422	-9.745539	0.016853	-0.012824	-0.001672	-0.003095
11790	11786236	0.067770	-9.733081	-0.005059	-0.008753	-0.002961	-0.004132
11791	11786261	0.085388	-9.742528	0.006833	-0.008969	0.000015	-0.001875
11792	11786286	0.084589	-9.749518	-0.002265	-0.009318	0.000906	-0.004308
11793	11786311	0.069250	-9.752851	0.017478	-0.008193	-0.008501	-0.001279
11794	11786336	0.071455	-9.746408	0.032352	-0.008102	-0.005142	-0.001262
11795	11786361	0.086812	-9.742099	0.010649	-0.011115	0.001004	-0.003341
11796	11786386	0.086552	-9.768947	0.028830	-0.013657	-0.005950	-0.002664
11797	11786411	0.084511	-9.750199	0.011157	-0.009519	-0.005037	-0.002348
11798	11786436	0.084476	-9.750546	0.002967	-0.011575	0.004114	0.003989
11799	11786461	0.070727	-9.717949	0.001107	-0.012809	-0.003597	0.004402
11800	11786486	0.078225	-9.740800	0.012193	-0.006443	-0.000723	-0.000726
11801	11786511	0.082806	-9.725881	0.002077	-0.006254	-0.000709	0.000100
11802	11786536	0.089647	-9.738188	0.005481	-0.001273	-0.004831	-0.004484
11803	11786561	0.088565	-9.734665	0.022738	0.000730	-0.003113	-0.003585
11804	11786586	0.104111	-9.758644	0.020785	0.003506	-0.004101	-0.004879
11805	11786611	0.134460	-9.752785	0.034490	-0.000001	-0.008817	-0.005737
11806	11786636	0.102572	-9.753964	0.023677	0.002590	-0.007544	-0.003099
11807	11786661	0.114035	-9.749381	0.012576	0.002246	-0.006640	-0.002904
11808	11786686	0.127232	-9.741740	0.019719	0.003263	-0.002164	-0.002693
11809	11786711	0.113005	-9.750657	0.033189	0.000374	-0.008559	-0.006111
11810	11786736	0.115363	-9.742024	0.029272	-0.003362	-0.004043	-0.010444
11811	11786761	0.123341	-9.740889	0.023469	-0.005236	-0.002502	0.001176
11812	11786786	0.119892	-9.729063	0.023546	-0.001825	-0.005093	-0.000125
11813	11786811	0.092772	-9.724227	0.025583	-0.000711	-0.000565	-0.010175
11814	11786836	0.103258	-9.729552	0.011088	-0.005558	-0.002570	0.000544
11815	11786861	0.127548	-9.736085	0.023422	-0.008062	-0.010367	0.002232
11816	11786886	0.134388	-9.745466	0.021529	-0.002924	-0.002789	-0.000627
11817	11786911	0.123222	-9.726536	0.015828	-0.002322	-0.001745	-0.001261
11818	11786936	0.125677	-9.742403	0.032127	-0.003375	-0.004600	0.001226
11819	11786961	0.117214	-9.733592	0.006603	-0.011730	-0.005920	-0.003250
11820	11786986	0.113923	-9.745640	0.015877	-0.006109	-0.005558	-0.000499
11821	11787011	0.123275	-9.735208	0.024360	-0.008620	0.003313	-0.003463
11822	11787036	0.106552	-9.759860	0.009558	-0.011830	-0.000818	-0.003028
11823	11787061	0.084728	-9.721380	-0.011399	-0.010183	0.002386	0.001480
11824	11787086	0.085707	-9.729242	0.006731	-0.014898	0.001456	-0.000565
11825	11787111	0.098227	-9.730272	-0.009103	-0.010820	-0.000417	-0.005595
11826	11787136	0.085469	-9.751658	0.014524	-0.007166	-0.000542	-0.003996
11827	11787161	0.073480	-9.738785	0.000629	-0.012568	-0.003734	-0.002652
11828	11787186	0.056552	-9.727180	0.004100	-0.008883	0.002027	0.003722
11829	11787211	0.084826	-9.732344	-0.008090	-0.012834	0.001311	0.004044
11830	11787236	0.068614	-9.745939	0.030373	-0.012799	0.001884	-0.000127
11831	11787261	0.101602	-9.743786	0.009099	-0.013834	0.001925	-0.002682
11832	11787286	0.098214	-9.734053	-0.010035	-0.011161	0.000820	-0.000133
11833	11787311	0.064487	-9.739202	-0.010819	-0.011013	-0.003897	0.001447
11834	11787336	0.085980	-9.746104	-0.006632	-0.014375	0.000952	0.000964
11835	11787361	0.088612	-9.768009	-0.000419	-0.013237	-0.000907	-0.003085
11836	11787386	0.088103	-9.743750	0.027497	-0.007279	0.001663	0.001402
11837	11787411	0.087649	-9.730494	-0.002392	-0.017934	-0.001627	0.001220
11838	11787436	0.091815	-9.761530	0.014039	-0.008209	-0.001855	-0.002913
11839	11787461	0.093766	-9.764689	0.004399	-0.008778	0.000149	-0.001298
11840	11787486	0.090711	-9.741746	-0.009000	-0.009254	-0.005551	-0.003633
11841	11787511	0.130489	-9.755455	-0.011554	-0.006410	-0.004475	-0.006205
11842	11787536	0.117378	-9.726267	-0.038286	-0.000989	-0.005606	-0.002886
11843	11787561	0.119955	-9.727484	0.012952	-0.006132	0.001352	-0.001241
11844	11787586	0.093739	-9.724985	0.014475	-0.006005	0.001222	-0.004630
11845	11787611	0.103342	-9.740698	0.025970	-0.003637	-0.000471	-0.001191
11846	11787636	0.110482	-9.739701	0.028460	0.002399	0.000723	-0.003378
11847	11787661	0.117714	-9.773709	-0.006085	0.006133	0.000612	0.003156
11848	11787686	0.106264	-9.737174	0.014553	0.003338	-0.000677	-0.003198
11849	11787711	0.095434	-9.748638	0.010750	0.004072	-0.001502	-0.002238
11850	11787736	0.106350	-9.751135	0.028018	0.004835	-0.003298	-0.002573
11851	11787761	0.128235	-9.758661	0.041390	0.012280	-0.001743	-0.001046
11852	11787786	0.095253	-9.743667	0.027061	0.004420	-0.000073	0.000528
11853	11787811	0.086971	-9.721851	0.020960	0.009449	-0.001216	-0.001802
11854	11787836	0.069056	-9.707258	0.044921	0.003080	-0.002559	-0.005314
11855	11787861	0.090454	-9.739063	0.032390	0.005230	-0.006010	-0.004320
11856	11787886	0.122120	-9.767300	0.043188	0.000858	0.003490	0.002094
11857	11787911	0.104715	-9.743672	0.035623	0.000176	-0.003570	0.000197
11858	11787936	0.096038	-9.737719	0.042362	0.000234	0.005154	0.002301
11859	11787961	0.110300	-9.735716	0.047029	-0.003836	-0.002228	-0.000559
11860	11787986	0.095628	-9.727936	0.022700	-0.005008	-0.001927	-0.003366
11861	11788011	0.125679	-9.742592	0.043601	-0.004351	-0.002694	-0.006713
11862	11788036	0.126281	-9.748912	0.023366	-0.009875	-0.007945	0.000906
11863	11788061	0.108613	-9.711761	0.030773	-0.004174	-0.003381	0.002907
11864	11788086	0.098950	-9.743895	0.045115	-0.008091	0.000806	-0.000012
11865	11788111	0.090439	-9.735048	0.018246	-0.014116	-0.002852	0.001909
11866	11788136	0.078437	-9.733881	0.025416	-0.022733	-0.003776	0.002311
11867	11788161	0.071080	-9.719772	0.027930	-0.014998	0.000885	0.003856
11868	11788186	0.107427	-9.731854	0.040260	-0.009699	0.003166	0.000899
11869	11788211	0.096308	-9.722109	0.045458	-0.018261	0.002825	0.000283
11870	11788236	0.113962	-9.754862	0.030090	-0.016052	-0.000499	0.000834
11871	11788261	0.106383	-9.748453	0.007523	-0.020979	-0.000650	0.000206
11872	11788286	0.110804	-9.754658	0.013739	-0.023687	-0.002582	-0.005826
11873	11788311	0.105854	-9.742683	0.002271	-0.021307	-0.000072	0.002134
11874	11788336	0.117644	-9.766102	-0.007805	-0.015995	-0.000431	-0.000319
11875	11788361	0.117684	-9.771626	0.011953	-0.010893	-0.000225	-0.004886
11876	11788386	0.096511	-9.753696	0.001483	-0.010103	0.001477	-0.003402
11877	11788411	0.096865	-9.744608	-0.002723	-0.002864	-0.002456	0.002393
11878	11788436	0.092093	-9.739381	-0.007975	-0.002208	0.003043	0.002289
11879	11788461	0.108107	-9.746413	-0.031518	-0.001976	0.005554	-0.004943
11880	11788486	0.091072	-9.722435	-0.030507	-0.001775	-0.000958	-0.002536
11881	11788511	0.101299	-9.747660	-0.017209	-0.008595	-0.001855	-0.002722
11882	11788536	0.114296	-9.731227	0.004394	-0.000158	-0.003058	0.000072
11883	11788561	0.117405	-9.756782	0.003885	-0.002521	0.003307	0.005306
11884	11788586	0.128106	-9.765037	-0.006674	0.000298	0.000834	0.002529
11885	11788611	0.098838	-9.742694	-0.002737	-0.002205	-0.003687	-0.004481
11886	11788636	0.089453	-9.751664	-0.013192	0.000207	-0.000808	-0.004081
11887	11788661	0.097466	-9.751701	-0.003592	0.005025	-0.003427	-0.001739
11888	11788686	0.073404	-9.731632	-0.001652	-0.001727	-0.002123	-0.001007
11889	11788711	0.094809	-9.770457	0.010277	0.002244	0.001629	-0.004460
11890	11788736	0.116535	-9.762703	0.016974	0.008532	-0.003044	-0.002773
11891	11788761	0.100344	-9.741491	-0.018066	-0.000471	0.000542	-0.002670
11892	11788786	0.071094	-9.746236	0.020005	0.005680	0.002399	-0.004077
11893	11788811	0.072389	-9.728932	0.006611	0.006188	-0.001663	-0.002886
11894	11788836	0.084181	-9.714812	-0.007411	-0.000805	-0.003210	-0.003000
11895	11788861	0.084900	-9.702353	0.016153	0.006436	-0.003602	-0.005844
11896	11788886	0.111631	-9.750609	0.028919	0.007299	-0.002684	-0.006747
11897	11788911	0.101644	-9.751587	0.022704	0.003254	-0.004497	-0.006361
11898	11788936	0.099953	-9.730238	0.021268	0.003509	-0.001767	-0.002046
11899	11788961	0.128616	-9.780556	0.015388	0.002901	-0.002943	0.000446
11900	11788986	0.116337	-9.741281	0.012088	0.003353	0.005136	-0.003937
11901	11789011	0.117883	-9.742496	0.000078	0.001280	-0.002596	-0.006726
11902	11789036	0.095229	-9.735613	0.027950	-0.002390	0.000316	-0.004837
11903	11789061	0.116977	-9.734517	0.035572	0.001034	-0.004464	0.000386
11904	11789086	0.102829	-9.731430	0.009738	-0.000322	0.000237	0.001760
11905	11789111	0.112695	-9.750174	0.001491	-0.003792	-0.006038	-0.003462
11906	11789136	0.089981	-9.730697	0.012183	-0.000979	-0.001793	-0.002994
11907	11789161	0.118026	-9.755771	-0.000922	-0.005043	-0.000766	-0.003558
11908	11789186	0.106997	-9.743886	-0.011399	-0.000657	0.006419	-0.004430
11909	11789211	0.088495	-9.715347	-0.000280	-0.001727	0.001420	-0.006631
11910	11789236	0.126662	-9.736119	0.024441	-0.001815	0.000194	-0.006193
11911	11789261	0.108923	-9.756941	0.006356	-0.000870	-0.002815	0.000206
11912	11789286	0.117598	-9.748838	-0.020077	-0.002721	-0.003900	-0.007489
11913	11789311	0.111149	-9.743547	0.001516	-0.001580	-0.002767	0.000079
11914	11789336	0.113218	-9.768282	0.038394	-0.005013	0.000004	-0.005800
11915	11789361	0.081465	-9.740965	0.025131	-0.003336	-0.004287	-0.004795
11916	11789386	0.122641	-9.758801	0.015298	-0.006692	-0.000653	0.001770
11917	11789411	0.076678	-9.731686	0.003998	-0.010361	-0.000271	0.000627
11918	11789436	0.105122	-9.766615	0.016317	-0.011286	-0.003451	0.000611
11919	11789461	0.107587	-9.742630	0.031654	-0.008127	-0.004107	0.001690
11920	11789486	0.093897	-9.722656	0.049062	-0.004315	-0.003064	0.001884
11921	11789511	0.101340	-9.741492	0.045114	-0.007337	-0.002995	-0.001960
11922	11789536	0.094170	-9.741038	0.041365	-0.003695	-0.000405	0.001703
11923	11789561	0.063174	-9.722418	0.008436	-0.006026	-0.001673	0.001511
11924	11789586	0.103080	-9.747158	0.013993	-0.004210	-0.005148	-0.005381
11925	11789611	0.106489	-9.739180	0.052788	-0.006270	-0.002199	-0.001191
11926	11789636	0.093297	-9.740014	0.034587	-0.009121	0.000653	-0.001867
11927	11789661	0.095256	-9.739792	0.022139	-0.007026	0.001535	-0.000332
11928	11789686	0.084601	-9.718471	0.015073	-0.003216	-0.003959	-0.004090
11929	11789711	0.085521	-9.728325	0.039889	-0.008252	-0.000826	-0.007585
11930	11789736	0.110785	-9.758018	0.016298	-0.009917	-0.000590	-0.004059
11931	11789761	0.097752	-9.759921	0.038496	-0.003959	-0.004219	0.002450
11932	11789786	0.103026	-9.744938	-0.007638	-0.008914	0.000930	0.004669
11933	11789811	0.116370	-9.741121	0.001964	-0.002991	-0.007123	-0.001866
11934	11789836	0.076619	-9.722013	-0.007999	-0.009350	0.002271	-0.001092
11935	11789861	0.085087	-9.746492	-0.013753	-0.008646	-0.000048	-0.002262
11936	11789886	0.107345	-9.748919	0.008184	-0.009032	-0.001664	0.002797
11937	11789911	0.120355	-9.745596	-0.012985	-0.007947	-0.000171	-0.005667
11938	11789936	0.093350	-9.729397	-0.007570	-0.008343	0.001000	0.002559
11939	11789961	0.098297	-9.740221	-0.010028	-0.010699	0.006446	-0.001834
11940	11789986	0.098405	-9.753680	0.002054	-0.003782	0.002044	-0.000146
11941	11790011	0.110875	-9.755177	-0.013940	-0.009491	0.000525	0.001270
11942	11790036	0.092802	-9.732544	0.011658	-0.005166	-0.002562	0.002077
11943	11790061	0.104550	-9.722095	0.020597	-0.010833	-0.003828	-0.000608
11944	11790086	0.094325	-9.738768	0.015912	-0.006749	0.005028	-0.000764
11945	11790111	0.095724	-9.739952	0.032725	-0.007004	-0.001706	-0.005352
11946	11790136	0.102250	-9.757524	0.007781	-0.003555	0.000682	-0.004064
11947	11790161	0.123607	-9.751163	0.012882	-0.009212	-0.002714	-0.005099
11948	11790186	0.119910	-9.735852	0.032590	-0.004637	-0.007598	-0.002056
11949	11790211	0.079404	-9.757291	0.005523	-0.003462	-0.006421	-0.004102
11950	11790236	0.102745	-9.760438	0.013063	-0.001545	-0.000313	-0.004335
11951	11790261	0.119564	-9.748734	0.036933	-0.002341	-0.000900	-0.000615
11952	11790286	0.103834	-9.743065	0.025959	-0.006500	-0.005175	-0.000820
11953	11790311	0.121009	-9.746331	0.035966	-0.002168	-0.000450	-0.002417
11954	11790336	0.103138	-9.749800	0.000580	-0.002632	0.000060	-0.001894
11955	11790361	0.094495	-9.753495	0.017874	-0.004736	0.001965	-0.000656
11956	11790386	0.096799	-9.748829	0.024625	-0.000642	-0.000033	-0.001773
11957	11790411	0.101760	-9.758454	0.006323	-0.002715	-0.001360	-0.000107
11958	11790436	0.090013	-9.732008	0.005466	-0.002630	-0.006272	-0.000641
11959	11790461	0.075880	-9.753883	0.028111	0.000586	-0.002539	-0.002806
11960	11790486	0.092476	-9.741652	0.017018	0.002506	-0.000563	-0.002167
11961	11790511	0.091570	-9.745872	0.013167	0.000712	0.001734	-0.001182
11962	11790536	0.103004	-9.755903	0.027434	-0.002308	0.002396	0.002164
11963	11790561	0.109106	-9.743320	0.015458	0.001812	-0.000565	0.002715
11964	11790586	0.101543	-9.732268	0.000099	-0.005236	-0.000836	-0.003940
11965	11790611	0.115178	-9.722585	-0.001410	-0.002818	-0.002071	0.000341
11966	11790636	0.091983	-9.727190	0.001576	-0.005767	-0.002462	-0.007154
11967	11790661	0.093650	-9.748829	-0.009467	-0.007157	-0.000603	-0.002913
11968	11790686	0.085544	-9.745568	-0.011302	-0.003454	-0.000416	-0.001439
11969	11790711	0.108549	-9.728039	0.008783	0.003053	0.002618	-0.001124
11970	11790736	0.111352	-9.760648	0.002894	-0.003816	0.003396	-0.000204
11971	11790761	0.095538	-9.742093	-0.013751	-0.004148	-0.000681	-0.002596
11972	11790786	0.077633	-9.740525	0.025066	-0.010455	0.002767	-0.001146
11973	11790811	0.088838	-9.728676	0.034634	-0.007193	0.000755	-0.001624
11974	11790836	0.105302	-9.739095	0.015811	-0.009188	0.002980	-0.001155
11975	11790861	0.071468	-9.719231	0.054333	-0.009440	0.003108	0.000133
11976	11790886	0.084149	-9.731986	0.030298	-0.011224	0.000620	-0.001933
11977	11790911	0.094928	-9.712721	0.020150	-0.014600	0.000235	0.000192
11978	11790936	0.112541	-9.763077	0.038348	-0.008599	-0.001006	0.002867
11979	11790961	0.102834	-9.747091	0.039733	-0.015132	-0.001059	0.003003
11980	11790986	0.139872	-9.770226	0.031362	-0.020057	-0.001736	-0.002819
11981	11791011	0.107995	-9.745790	0.052683	-0.012764	-0.003091	0.001583
11982	11791036	0.079049	-9.755643	0.052801	-0.016245	0.001697	-0.000046
11983	11791061	0.090803	-9.742661	0.051362	-0.010009	-0.001487	-0.000530
11984	11791086	0.116372	-9.723104	0.034415	-0.015502	0.000679	0.002445
11985	11791111	0.093966	-9.750694	0.020200	-0.011238	-0.000994	0.000052
11986	11791136	0.081584	-9.719200	0.030275	-0.014381	-0.000593	0.001600
11987	11791161	0.096472	-9.725070	0.022147	-0.007920	-0.000542	0.001642
11988	11791186	0.090313	-9.731002	0.033128	-0.012481	-0.002185	-0.000466
11989	11791211	0.094325	-9.732503	0.009618	-0.012757	-0.005810	-0.002474
11990	11791236	0.109022	-9.765941	0.005765	-0.009976	0.001614	-0.001420
11991	11791261	0.105432	-9.739757	-0.003358	-0.011137	0.001849	-0.001857
11992	11791286	0.121969	-9.726117	-0.013029	-0.009486	-0.004068	-0.002478
11993	11791311	0.103866	-9.732223	-0.000440	-0.008292	-0.000945	-0.000213
11994	11791336	0.110796	-9.744268	-0.014341	-0.007081	-0.003186	-0.002094
11995	11791361	0.098172	-9.752642	-0.035389	-0.007397	-0.001191	-0.003296
11996	11791386	0.104925	-9.758822	-0.029218	-0.009006	-0.003292	-0.004523
11997	11791411	0.095710	-9.719240	-0.018558	-0.005990	-0.002904	0.000860
11998	11791436	0.087263	-9.740339	0.020328	-0.004496	-0.004379	-0.008129
11999	11791461	0.112746	-9.745078	-0.021488	-0.002939	-0.002663	-0.003570
12000	11791486	0.107605	-9.741455	-0.044911	0.001512	-0.001547	-0.001274
12001	11791511	0.092221	-9.750235	-0.010851	-0.002255	-0.007743	0.002170
12002	11791536	0.082177	-9.719408	0.012266	0.003166	-0.000663	0.003418
12003	11791561	0.105832	-9.737354	-0.004225	-0.001866	-0.003742	0.001544
12004	11791586	0.102902	-9.735191	0.006347	-0.001974	-0.000644	-0.002731
12005	11791611	0.102387	-9.740080	0.015952	-0.002356	0.000077	0.004007
12006	11791636	0.091213	-9.752859	0.005015	-0.000635	-0.001833	0.003418
12007	11791661	0.073553	-9.699337	-0.004035	0.001992	-0.002640	-0.004932
12008	11791686	0.127559	-9.732241	0.019647	-0.002384	0.000516	-0.001188
12009	11791711	0.099331	-9.747087	0.005444	-0.001612	-0.002193	-0.005366
12010	11791736	0.122951	-9.742201	0.014919	0.000997	-0.001432	-0.001396
12011	11791761	0.104158	-9.727041	0.032717	-0.001718	-0.000772	-0.006072
12012	11791786	0.106860	-9.738475	0.069547	-0.004861	-0.000370	-0.003947
12013	11791811	0.101024	-9.746509	0.031756	-0.004196	-0.001201	-0.003436
12014	11791836	0.107479	-9.768093	0.021184	-0.003645	-0.000148	-0.000226
12015	11791861	0.125129	-9.775235	0.037815	-0.006966	-0.002211	0.002404
12016	11791886	0.107342	-9.756396	0.032176	-0.005530	-0.001678	-0.003433
12017	11791911	0.099242	-9.756917	0.028347	-0.007354	-0.000282	-0.001246
12018	11791936	0.110558	-9.752756	0.044650	-0.002219	0.003164	-0.002585
12019	11791961	0.109185	-9.748613	0.020684	-0.002156	0.001357	0.000681
12020	11791986	0.104959	-9.740752	-0.000837	-0.001565	-0.001281	-0.002480
12021	11792011	0.099566	-9.739149	0.014412	-0.008278	-0.005852	-0.000563
12022	11792036	0.100530	-9.738708	0.017799	-0.008991	-0.001220	-0.001754
12023	11792061	0.114029	-9.743028	0.000435	-0.010955	-0.004292	-0.004397
12024	11792086	0.098820	-9.748470	0.002968	-0.007577	-0.001583	-0.001755
12025	11792111	0.114376	-9.748131	0.024915	-0.009009	-0.002442	0.001188
12026	11792136	0.102292	-9.765368	0.024945	-0.012149	-0.002964	-0.005282
12027	11792161	0.089169	-9.743576	0.016021	-0.002947	-0.002213	-0.003441
12028	11792186	0.093776	-9.762476	0.014935	-0.011115	0.002676	-0.005382
12029	11792211	0.099739	-9.743553	-0.007571	-0.009055	-0.003409	0.000156
12030	11792236	0.089189	-9.738271	0.010708	-0.003047	-0.003254	-0.004987
12031	11792261	0.085556	-9.746162	-0.003693	-0.006682	-0.006162	-0.007555
12032	11792286	0.096175	-9.763598	-0.003259	-0.007504	-0.001964	-0.002080
12033	11792311	0.090632	-9.742987	0.009741	-0.003785	-0.006296	-0.002818
12034	11792336	0.083099	-9.712786	0.014607	-0.004257	-0.001140	-0.002855
12035	11792361	0.089342	-9.732586	0.041888	-0.004733	-0.002438	-0.003178
12036	11792386	0.102060	-9.748209	0.019317	-0.002441	-0.004014	-0.001915
12037	11792411	0.087317	-9.744059	0.015090	0.000682	-0.001760	-0.005950
12038	11792436	0.107617	-9.733431	0.019324	0.000717	0.001340	-0.003949
12039	11792461	0.102105	-9.749454	0.007854	0.003172	-0.005458	-0.000082
12040	11792486	0.103935	-9.754493	0.028894	0.000688	-0.003493	0.003338
12041	11792511	0.101709	-9.721655	0.020299	0.001566	0.003229	-0.001951
12042	11792536	0.111633	-9.741770	0.009135	-0.006199	-0.000788	-0.006573
12043	11792561	0.138990	-9.746754	0.047419	0.000900	-0.000267	-0.001132
12044	11792586	0.109920	-9.733486	0.024572	0.001130	-0.003691	-0.002307
12045	11792611	0.095969	-9.716563	0.023201	0.002120	-0.002705	-0.005125
12046	11792636	0.099019	-9.733539	0.019251	-0.004686	-0.004049	-0.003320
12047	11792661	0.122471	-9.743796	0.026374	-0.002262	0.002582	-0.003229
12048	11792686	0.145502	-9.761230	0.037687	-0.007614	-0.000487	-0.004452
12049	11792711	0.115688	-9.742482	0.029188	-0.011496	-0.002804	0.002155
12050	11792736	0.100093	-9.737359	0.021672	-0.007106	-0.000550	-0.008044
12051	11792761	0.102371	-9.733361	0.011143	-0.002104	0.001882	0.001450
12052	11792786	0.112925	-9.733682	0.008606	-0.008091	-0.003593	-0.003821
12053	11792811	0.089582	-9.732978	0.005897	-0.006741	-0.001891	-0.004005
12054	11792836	0.107526	-9.764741	0.019182	-0.007801	0.003582	-0.002888
