// General information: 
//  MT Manager version: 2022.0.0 
//  XDA version: 2022.0.0 build 7085 rev 119802 built on 2022-11-08
// Device information: 
//  DeviceId: 037004D1
//  ProductCode: MTi-300-2A5G4
//  Firmware Version: 1.4.1
//  Hardware Version: 2.1.0
// Device settings: 
//  Filter Profile: general(39.16)
//  Option Flags: Orientation Smoother Disabled, Position/Velocity Smoother Disabled, Continuous Zero Rotation Update Disabled, AHS Disabled, ICC Disabled
// Coordinate system: ENU
PacketCounter	SampleTimeFine	Acc_X	Acc_Y	Acc_Z	Gyr_X	Gyr_Y	Gyr_Z
31146	10631736	0.102366	-9.752714	-0.024608	-0.004475	-0.003858	-0.002493
31147	10631761	0.099307	-9.734671	-0.028469	-0.004961	-0.002576	-0.004408
31148	10631786	0.097088	-9.744642	-0.029847	-0.001615	0.000843	-0.003819
31149	10631811	0.098026	-9.744036	-0.037011	-0.001307	-0.000374	-0.000238
31150	10631836	0.103029	-9.760110	-0.037067	-0.003864	0.000925	-0.005224
31151	10631861	0.105114	-9.744013	-0.033279	-0.005938	-0.001685	0.000922
31152	10631886	0.116115	-9.754968	-0.021266	0.001532	-0.000899	0.001733
31153	10631911	0.072426	-9.719348	-0.029296	-0.005648	-0.002971	-0.001968
31154	10631936	0.103128	-9.724776	-0.051943	-0.001866	0.000905	-0.002922
31155	10631961	0.099657	-9.719949	-0.029364	-0.001080	-0.001933	-0.005826
31156	10631986	0.102772	-9.747821	-0.034153	0.001726	-0.001293	0.000900
31157	10632011	0.104847	-9.736790	-0.008836	-0.004958	-0.004049	0.004049
31158	10632036	0.106972	-9.740621	-0.036601	-0.002830	-0.000845	0.001238
31159	10632061	0.110111	-9.755593	-0.047655	-0.001943	-0.005035	-0.000903
31160	10632086	0.090346	-9.747903	-0.008745	-0.003949	-0.002372	-0.005500
31161	10632111	0.092896	-9.752666	-0.036112	-0.007778	0.003836	-0.002761
31162	10632136	0.086940	-9.737216	-0.027388	-0.003174	-0.000353	-0.004661
31163	10632161	0.132387	-9.754139	-0.031486	-0.004019	-0.001781	0.000015
31164	10632186	0.107417	-9.741724	-0.026100	-0.004622	-0.000818	0.001304
31165	10632211	0.120107	-9.730262	-0.020377	-0.001374	-0.002570	0.000325
31166	10632236	0.126834	-9.736419	-0.016183	-0.008862	0.001693	-0.000276
31167	10632261	0.125184	-9.757386	-0.011337	-0.004433	0.003183	-0.002524
31168	10632286	0.112136	-9.731589	-0.033842	-0.009738	-0.001040	-0.001568
31169	10632311	0.117934	-9.746992	-0.014677	-0.008921	0.001489	-0.000979
31170	10632336	0.116598	-9.749180	-0.027560	-0.003883	0.002162	-0.001182
31171	10632361	0.093927	-9.734553	-0.009710	-0.004403	-0.002047	-0.002545
31172	10632386	0.103271	-9.763628	0.006985	-0.007264	-0.006755	-0.002694
31173	10632411	0.125708	-9.760790	-0.005592	-0.007120	0.000805	-0.003231
31174	10632436	0.143687	-9.778641	-0.033516	-0.009009	-0.002064	-0.001897
31175	10632461	0.111156	-9.766248	-0.032962	-0.015658	-0.000378	-0.005335
31176	10632486	0.120185	-9.759705	-0.049694	-0.009361	0.001292	0.000560
31177	10632511	0.130152	-9.759781	-0.037294	-0.010216	-0.000542	-0.004382
31178	10632536	0.109001	-9.756035	-0.019378	-0.005119	-0.003670	-0.000563
31179	10632561	0.095921	-9.731829	-0.031355	-0.007664	-0.004038	-0.001203
31180	10632586	0.109353	-9.739738	-0.029839	0.001207	-0.002912	0.000128
31181	10632611	0.073764	-9.717629	-0.015865	-0.004038	-0.007662	-0.004306
31182	10632636	0.101289	-9.734845	-0.047169	-0.005291	0.000073	-0.000611
31183	10632661	0.108002	-9.741555	-0.036679	-0.007211	-0.004420	-0.003131
31184	10632686	0.104663	-9.774160	-0.048609	-0.004968	0.001885	-0.001824
31185	10632711	0.124821	-9.753750	-0.032364	-0.002123	-0.001039	-0.002550
31186	10632736	0.096155	-9.751903	-0.021743	-0.005811	-0.002208	-0.005174
31187	10632761	0.084677	-9.739738	-0.049917	-0.003546	-0.004545	0.001350
31188	10632786	0.086978	-9.748829	-0.012609	-0.008419	-0.000112	-0.001118
31189	10632811	0.096924	-9.729431	-0.032286	-0.003397	0.002681	-0.005156
31190	10632836	0.121076	-9.748159	-0.059190	-0.002545	0.000048	-0.002989
31191	10632861	0.118444	-9.731655	-0.054940	-0.006725	0.000821	-0.000156
31192	10632886	0.111939	-9.725313	-0.009804	-0.003825	-0.003976	-0.002751
31193	10632911	0.101558	-9.737855	-0.004437	-0.000568	-0.003728	-0.002371
31194	10632936	0.099226	-9.722684	-0.037054	-0.003290	-0.007007	-0.004050
31195	10632961	0.083758	-9.720861	-0.013089	-0.007844	0.002031	-0.001040
31196	10632986	0.109266	-9.743923	-0.004482	-0.002924	0.000045	-0.001901
31197	10633011	0.108733	-9.736085	-0.021386	-0.008048	-0.001845	0.001627
31198	10633036	0.120875	-9.748114	-0.031983	-0.007088	0.002366	0.000368
31199	10633061	0.113877	-9.754936	-0.025664	-0.006470	-0.003710	-0.005952
31200	10633086	0.118487	-9.760446	-0.002670	-0.005342	-0.002514	-0.001909
31201	10633111	0.109377	-9.736382	-0.032244	0.000386	-0.003780	-0.004296
31202	10633136	0.106258	-9.755514	-0.025083	-0.000049	-0.002040	-0.004674
31203	10633161	0.112827	-9.758902	-0.015103	-0.008525	-0.001085	-0.002016
31204	10633186	0.105115	-9.710627	-0.013609	-0.003956	-0.001782	-0.003514
31205	10633211	0.095152	-9.736258	-0.052366	-0.001390	0.002074	-0.002661
31206	10633236	0.112049	-9.772217	-0.013614	-0.002432	-0.001235	0.000076
31207	10633261	0.100163	-9.733820	-0.021282	-0.005019	-0.000440	-0.000866
31208	10633286	0.094551	-9.732745	-0.034168	-0.001815	-0.000842	-0.003442
31209	10633311	0.071889	-9.746575	-0.046929	0.001600	0.001043	0.002201
31210	10633336	0.100121	-9.726171	-0.025088	-0.004125	-0.004694	-0.003329
31211	10633361	0.084136	-9.737926	-0.045121	-0.003935	-0.000158	0.001565
31212	10633386	0.100641	-9.729463	-0.027030	-0.004604	-0.003277	0.000782
31213	10633411	0.105264	-9.714024	-0.039556	-0.008701	0.002855	0.001654
31214	10633436	0.132520	-9.766626	-0.021485	-0.009654	0.000443	-0.000536
31215	10633461	0.121205	-9.737184	-0.032883	-0.006042	-0.002067	0.003934
31216	10633486	0.108050	-9.760575	-0.003161	-0.008601	-0.002965	-0.004853
31217	10633511	0.126533	-9.734103	-0.043457	-0.007074	-0.000609	-0.004332
31218	10633536	0.119253	-9.737632	-0.005060	-0.004600	-0.002323	-0.007933
31219	10633561	0.114452	-9.735566	-0.019960	-0.008708	-0.003344	0.000276
31220	10633586	0.118627	-9.754765	-0.033264	-0.000852	-0.004831	-0.001545
31221	10633611	0.120060	-9.757686	-0.027062	-0.001791	0.000516	-0.001901
31222	10633636	0.123524	-9.727597	-0.037200	-0.005212	0.001688	-0.001693
31223	10633661	0.093824	-9.711836	-0.037526	-0.004336	-0.002247	-0.005431
31224	10633686	0.098287	-9.721759	-0.036166	-0.008479	-0.000903	-0.006567
31225	10633711	0.103390	-9.720407	-0.027519	-0.006327	-0.003956	-0.004156
31226	10633736	0.088176	-9.725904	-0.021693	-0.005007	-0.000767	-0.000364
31227	10633761	0.099100	-9.743927	-0.043832	-0.006263	-0.006290	-0.005963
31228	10633786	0.112219	-9.748918	-0.016966	-0.002043	-0.001223	0.002384
31229	10633811	0.113186	-9.726882	-0.061113	-0.003667	-0.002612	0.000589
31230	10633836	0.089954	-9.759748	-0.009646	0.001372	-0.000198	-0.001396
31231	10633861	0.093635	-9.709352	-0.013625	-0.009297	-0.000711	0.000417
31232	10633886	0.104240	-9.741168	-0.034220	-0.006105	-0.003187	-0.007486
31233	10633911	0.092285	-9.705673	-0.038045	-0.008351	0.004025	0.000772
31234	10633936	0.097807	-9.730564	-0.018884	-0.008373	-0.002059	-0.005485
31235	10633961	0.095493	-9.734647	-0.033177	-0.001761	-0.000323	-0.003187
31236	10633986	0.097310	-9.729063	-0.024578	-0.001088	-0.001404	-0.002432
31237	10634011	0.090932	-9.744948	-0.045654	-0.005016	0.001563	-0.000922
31238	10634036	0.109803	-9.732978	-0.038093	-0.002930	0.002114	-0.002913
31239	10634061	0.100977	-9.740226	-0.066840	-0.006849	0.001016	0.001200
31240	10634086	0.064738	-9.722978	-0.014393	-0.005344	-0.000058	0.000936
31241	10634111	0.052556	-9.735722	-0.028253	-0.006849	-0.005113	0.003541
31242	10634136	0.102317	-9.758486	-0.020342	-0.008552	0.002608	0.005376
31243	10634161	0.091129	-9.739780	-0.011651	-0.005817	0.000517	-0.001186
31244	10634186	0.094627	-9.754026	-0.007838	-0.005397	0.001425	-0.002652
31245	10634211	0.104117	-9.737508	-0.025146	-0.007726	-0.004114	-0.003193
31246	10634236	0.100849	-9.740345	-0.028408	-0.001243	-0.001036	-0.006269
31247	10634261	0.112279	-9.737881	-0.055834	-0.005242	-0.001079	0.005792
31248	10634286	0.108952	-9.745890	-0.031401	-0.005676	-0.002065	-0.000753
31249	10634311	0.105498	-9.738795	-0.033358	-0.010902	-0.000539	0.001073
31250	10634336	0.092262	-9.749156	-0.017797	-0.001891	-0.002128	-0.000499
31251	10634361	0.116967	-9.747797	-0.024692	-0.004062	-0.000094	0.001763
31252	10634386	0.117258	-9.733743	-0.013229	-0.006273	0.002831	0.000814
31253	10634411	0.123219	-9.744899	-0.023270	-0.003199	0.000359	-0.003114
31254	10634436	0.086148	-9.718359	-0.020252	-0.006060	0.000189	-0.000286
31255	10634461	0.106808	-9.738755	-0.004049	-0.005662	-0.004587	-0.002043
31256	10634486	0.127666	-9.754353	-0.021901	-0.007382	-0.003207	-0.006074
31257	10634511	0.108219	-9.722656	-0.031334	-0.002921	-0.000019	-0.002223
31258	10634536	0.107247	-9.729981	-0.018393	-0.000176	-0.002035	-0.001985
31259	10634561	0.101208	-9.740172	-0.008830	-0.006230	-0.001314	-0.006834
31260	10634586	0.099137	-9.726667	-0.025159	-0.009000	-0.004452	-0.002098
31261	10634611	0.122643	-9.738808	-0.018038	-0.007381	-0.001137	-0.004905
31262	10634636	0.124504	-9.727089	-0.038202	-0.008610	-0.002445	-0.001067
31263	10634661	0.121117	-9.751530	0.005926	-0.005515	-0.002833	0.003412
31264	10634686	0.101540	-9.739220	-0.008405	-0.010072	0.001802	0.001082
31265	10634711	0.103914	-9.723579	-0.036629	-0.006451	-0.001560	0.001755
31266	10634736	0.115825	-9.729856	-0.020430	-0.008009	0.000991	-0.002269
31267	10634761	0.113100	-9.749468	-0.011290	-0.006655	0.001222	0.004403
31268	10634786	0.099171	-9.738027	0.004626	-0.003387	-0.001778	-0.004917
31269	10634811	0.084421	-9.729695	-0.024572	-0.008211	-0.000885	-0.002077
31270	10634836	0.107498	-9.744207	-0.018914	-0.003520	0.002486	-0.005157
31271	10634861	0.097313	-9.767407	-0.029864	-0.004679	-0.003344	-0.001335
31272	10634886	0.119497	-9.742270	-0.042503	-0.009716	-0.004016	-0.002287
31273	10634911	0.102743	-9.742665	-0.030876	-0.006381	-0.002149	-0.002801
31274	10634936	0.106873	-9.727305	-0.038558	-0.004146	0.000349	0.000672
31275	10634961	0.093905	-9.734988	-0.012093	-0.003377	-0.001766	0.000085
31276	10634986	0.110850	-9.741050	-0.036107	-0.000207	0.001065	-0.000627
31277	10635011	0.101917	-9.758287	-0.032739	-0.000168	0.000037	0.001493
31278	10635036	0.113030	-9.725833	-0.037200	-0.006159	-0.000852	-0.000808
31279	10635061	0.099834	-9.743679	-0.028487	-0.006737	0.003541	-0.000075
31280	10635086	0.109023	-9.752254	-0.018933	-0.008389	-0.001477	-0.005616
31281	10635111	0.094708	-9.742080	-0.044273	-0.004807	-0.003475	-0.004031
31282	10635136	0.134185	-9.741676	-0.038217	-0.006816	0.001657	-0.000343
31283	10635161	0.114877	-9.754829	-0.031862	-0.003897	-0.012511	-0.006196
31284	10635186	0.110006	-9.751558	-0.032319	-0.004685	-0.003211	-0.001721
31285	10635211	0.075051	-9.733838	-0.040736	-0.000568	-0.001658	-0.001332
31286	10635236	0.109675	-9.763360	-0.037093	-0.003655	-0.003517	-0.001591
31287	10635261	0.092331	-9.718323	-0.016916	-0.002505	0.003228	-0.000149
31288	10635286	0.095979	-9.728913	-0.035638	-0.005391	-0.003365	-0.006527
31289	10635311	0.101217	-9.733354	-0.020777	-0.002883	-0.001773	-0.006719
31290	10635336	0.101663	-9.729396	-0.030879	-0.006743	-0.001192	-0.006187
31291	10635361	0.104850	-9.730135	-0.010764	-0.004864	0.000657	-0.003178
31292	10635386	0.078748	-9.736002	-0.020271	-0.010012	-0.002527	-0.000417
31293	10635411	0.108281	-9.739595	-0.009798	-0.005592	0.001420	-0.001371
31294	10635436	0.102283	-9.741664	-0.034704	-0.005247	0.000392	-0.002271
31295	10635461	0.103816	-9.734112	0.000695	-0.008424	-0.000107	0.001127
31296	10635486	0.100728	-9.744382	-0.013170	-0.010176	0.000691	-0.000079
31297	10635511	0.105434	-9.725051	-0.032347	-0.005372	-0.001945	-0.005366
31298	10635536	0.085384	-9.732149	-0.019283	-0.004959	0.001624	-0.003935
31299	10635561	0.109851	-9.734492	-0.031887	-0.005552	-0.002399	-0.005367
31300	10635586	0.120490	-9.758310	-0.017095	-0.010729	-0.004424	-0.003378
31301	10635611	0.115343	-9.736645	-0.010305	-0.003113	-0.002083	0.000912
31302	10635636	0.131357	-9.739721	-0.044924	-0.004120	-0.002819	-0.002235
31303	10635661	0.116032	-9.746363	-0.026574	-0.002752	-0.001040	0.002711
31304	10635686	0.099316	-9.734625	-0.031801	-0.002995	-0.001895	-0.001845
31305	10635711	0.112491	-9.748910	-0.048660	-0.005612	0.001737	-0.004831
31306	10635736	0.089152	-9.753477	-0.048024	-0.001480	0.000982	-0.001766
31307	10635761	0.124054	-9.765887	-0.045812	-0.005308	-0.003676	-0.001206
31308	10635786	0.112290	-9.738670	-0.035676	-0.000571	-0.003853	-0.003727
31309	10635811	0.093820	-9.722996	-0.020749	-0.002739	0.002576	-0.000091
31310	10635836	0.097042	-9.744066	-0.036626	-0.005345	0.002010	0.001262
31311	10635861	0.125129	-9.732180	-0.046266	-0.000466	-0.005281	-0.005203
31312	10635886	0.122773	-9.744221	-0.036746	-0.006342	0.000891	-0.000475
31313	10635911	0.102385	-9.748654	-0.042414	-0.008303	0.000343	0.001134
31314	10635936	0.114376	-9.757154	-0.035275	-0.009835	0.001994	-0.001746
31315	10635961	0.078949	-9.714974	-0.029853	-0.008017	0.006109	0.005782
31316	10635986	0.113129	-9.739232	-0.029503	-0.007065	0.001657	0.000750
31317	10636011	0.096903	-9.739465	-0.026999	-0.003882	0.002559	0.003056
31318	10636036	0.084109	-9.730225	-0.052359	-0.005966	-0.002715	0.001174
31319	10636061	0.115302	-9.724116	-0.023244	-0.004537	-0.003660	-0.000633
31320	10636086	0.122675	-9.742540	-0.022269	0.001441	-0.000659	-0.002304
31321	10636111	0.123023	-9.766113	-0.031870	-0.002441	0.000894	-0.001892
31322	10636136	0.106021	-9.772919	-0.035187	-0.003968	-0.003721	-0.003776
31323	10636161	0.121996	-9.768341	-0.011815	-0.006342	-0.003438	-0.003065
31324	10636186	0.129121	-9.763165	-0.033273	0.002612	0.001645	0.004436
31325	10636211	0.110871	-9.754646	-0.015475	0.001903	-0.000441	0.000967
31326	10636236	0.117815	-9.770642	-0.018950	-0.002496	-0.001825	-0.006853
31327	10636261	0.127715	-9.770520	-0.018947	-0.002310	-0.004840	0.004615
31328	10636286	0.084186	-9.720528	-0.003389	-0.000151	-0.000490	-0.000492
31329	10636311	0.124221	-9.719843	-0.016047	0.000453	-0.001374	0.000775
31330	10636336	0.123696	-9.742785	-0.036251	-0.003189	0.002570	-0.000153
31331	10636361	0.121168	-9.736758	-0.029451	-0.000250	-0.001256	0.002064
31332	10636386	0.098018	-9.746869	-0.038510	-0.004874	-0.000623	0.004002
31333	10636411	0.117454	-9.739566	-0.034740	-0.001802	-0.000836	0.002067
31334	10636436	0.106471	-9.735577	-0.025624	-0.004350	-0.003792	-0.003393
31335	10636461	0.092798	-9.721780	-0.008265	-0.003801	-0.002615	-0.000243
31336	10636486	0.110108	-9.745462	0.003656	-0.000121	-0.001253	0.003409
31337	10636511	0.132800	-9.759754	-0.005097	-0.003219	-0.000539	0.000210
31338	10636536	0.118591	-9.764093	-0.012788	-0.011332	-0.001326	-0.001052
31339	10636561	0.113204	-9.740035	-0.039164	-0.011915	0.001054	-0.001356
31340	10636586	0.125098	-9.754163	-0.004091	-0.003487	-0.002287	-0.000501
31341	10636611	0.102514	-9.748824	0.000718	-0.009134	-0.003470	0.005856
31342	10636636	0.129208	-9.767656	-0.019523	-0.007701	0.003254	-0.003794
31343	10636661	0.105722	-9.759837	-0.022272	-0.007933	-0.001395	0.000417
31344	10636686	0.113715	-9.744493	-0.026142	-0.005342	-0.000645	-0.004205
31345	10636711	0.098525	-9.746992	-0.030422	-0.009011	-0.003940	-0.002162
31346	10636736	0.077568	-9.713936	-0.036955	-0.004657	-0.003529	0.003223
31347	10636761	0.102707	-9.744179	-0.024179	-0.004293	-0.001068	-0.000814
31348	10636786	0.101710	-9.731166	-0.039033	-0.006430	-0.011195	-0.004706
31349	10636811	0.107543	-9.753799	-0.012739	-0.008637	0.000460	-0.001885
31350	10636836	0.107216	-9.753903	-0.036223	-0.009581	-0.000201	-0.003164
31351	10636861	0.106857	-9.764407	-0.032744	-0.001541	-0.003552	-0.003587
31352	10636886	0.108493	-9.745825	-0.036137	-0.002103	-0.005749	0.000185
31353	10636911	0.094809	-9.713178	-0.040861	-0.003541	0.001389	-0.003242
31354	10636936	0.115962	-9.726606	-0.046335	-0.009426	-0.005174	-0.002038
31355	10636961	0.109002	-9.737013	-0.053480	-0.010338	-0.006416	0.000073
31356	10636986	0.103393	-9.714649	-0.031366	-0.006661	-0.003578	-0.004283
31357	10637011	0.118874	-9.734678	-0.042936	-0.005209	-0.004642	0.000517
31358	10637036	0.111156	-9.732509	-0.036165	-0.004800	0.000794	-0.000226
31359	10637061	0.139081	-9.762229	-0.024855	-0.008763	-0.001210	0.003682
31360	10637086	0.126883	-9.735364	-0.023363	-0.008199	-0.003278	-0.001331
31361	10637111	0.124767	-9.750943	-0.030027	-0.005704	-0.005563	-0.004038
31362	10637136	0.119436	-9.744864	-0.028576	-0.006422	-0.000601	-0.002477
31363	10637161	0.103776	-9.749275	-0.031819	-0.004967	-0.000377	-0.001891
31364	10637186	0.111522	-9.733950	-0.004136	-0.008503	-0.003931	-0.003766
31365	10637211	0.101185	-9.732697	-0.032289	-0.005150	-0.002643	-0.003448
31366	10637236	0.116395	-9.737539	-0.013585	0.001414	0.000575	-0.002162
31367	10637261	0.094398	-9.729624	-0.021251	-0.006980	0.002949	-0.000073
31368	10637286	0.081510	-9.726530	-0.016906	-0.005706	-0.001365	-0.002985
31369	10637311	0.107157	-9.756983	-0.021752	-0.002792	0.001921	-0.002661
31370	10637336	0.093412	-9.754419	-0.045204	-0.003926	0.001715	0.002475
31371	10637361	0.127022	-9.746665	-0.028111	-0.005931	0.000130	0.000548
31372	10637386	0.116003	-9.752303	-0.009819	-0.003791	0.001395	0.001191
31373	10637411	0.111696	-9.744109	-0.021756	-0.002199	-0.002192	0.004052
31374	10637436	0.116207	-9.762162	-0.016559	-0.005640	-0.001030	0.000662
31375	10637461	0.108253	-9.737964	-0.022622	0.001410	-0.002767	0.006160
31376	10637486	0.101380	-9.750212	-0.034178	0.001149	0.003093	-0.000414
31377	10637511	0.111340	-9.733129	-0.057736	-0.003068	0.000757	0.001055
31378	10637536	0.095962	-9.743965	-0.012999	0.003670	0.002101	-0.001393
31379	10637561	0.081972	-9.723986	-0.027861	-0.002034	0.000392	0.001307
31380	10637586	0.101031	-9.733558	-0.007352	-0.003311	0.002237	-0.001755
31381	10637611	0.123571	-9.738607	-0.031010	-0.006728	-0.002791	0.003228
31382	10637636	0.119508	-9.751433	-0.032358	-0.003618	0.001781	-0.000034
31383	10637661	0.103932	-9.761636	-0.030389	-0.004548	0.002728	-0.003609
31384	10637686	0.099537	-9.760416	-0.020818	-0.007476	-0.001970	-0.002091
31385	10637711	0.090952	-9.747910	-0.038438	-0.002359	-0.003563	0.000198
31386	10637736	0.124852	-9.763866	-0.022381	-0.007795	0.000349	-0.001380
31387	10637761	0.101726	-9.743786	-0.020315	-0.006412	-0.001177	-0.001188
31388	10637786	0.094521	-9.744090	-0.006385	-0.006415	0.001211	-0.001696
31389	10637811	0.081281	-9.747892	-0.016397	-0.004859	-0.003543	-0.001147
31390	10637836	0.097545	-9.736311	0.015565	-0.012898	-0.000185	0.001138
31391	10637861	0.120141	-9.736969	-0.016087	-0.007062	-0.002408	0.002843
31392	10637886	0.111471	-9.731984	-0.007870	-0.002949	-0.005311	0.000319
31393	10637911	0.100131	-9.732056	-0.013200	-0.010946	0.000548	-0.002000
31394	10637936	0.095470	-9.731764	-0.036119	-0.006343	0.003025	-0.001746
31395	10637961	0.114987	-9.763781	-0.035822	-0.013590	-0.005318	-0.004338
31396	10637986	0.118286	-9.762708	-0.041068	-0.008382	0.004666	-0.002696
31397	10638011	0.122881	-9.748398	-0.042506	-0.007407	0.000033	-0.001949
31398	10638036	0.119068	-9.738234	-0.059240	-0.005825	-0.001626	-0.003764
31399	10638061	0.109246	-9.734571	-0.027064	-0.005329	0.003432	-0.001812
31400	10638086	0.091239	-9.730695	-0.046634	-0.006756	-0.006224	0.000131
31401	10638111	0.110593	-9.738660	-0.006891	-0.000447	-0.005467	0.000376
31402	10638136	0.121267	-9.737646	-0.033274	-0.001310	-0.000574	-0.001779
31403	10638161	0.106957	-9.732896	-0.045198	0.000046	-0.002542	0.002569
31404	10638186	0.122172	-9.766853	-0.046299	-0.004785	-0.001664	0.000213
31405	10638211	0.099156	-9.766931	-0.028509	-0.007083	0.000046	0.002280
31406	10638236	0.100897	-9.753527	-0.035206	-0.008196	-0.000615	0.005937
31407	10638261	0.123096	-9.736276	-0.028595	-0.005522	0.001487	0.001195
31408	10638286	0.118990	-9.750181	-0.022294	-0.004478	-0.001471	-0.002486
31409	10638311	0.104666	-9.756873	0.001278	-0.002305	-0.003566	-0.003199
31410	10638336	0.114304	-9.762745	-0.010777	-0.005341	-0.002843	-0.004666
31411	10638361	0.092109	-9.737719	-0.021234	-0.004269	0.000221	-0.000551
31412	10638386	0.126739	-9.754652	-0.034310	-0.002782	0.001335	-0.002277
31413	10638411	0.111939	-9.764260	-0.007373	-0.000903	-0.005409	-0.002514
31414	10638436	0.109865	-9.747887	-0.024623	-0.001214	-0.001337	0.000395
31415	10638461	0.089793	-9.731953	-0.027410	-0.001112	-0.003162	-0.006796
31416	10638486	0.096707	-9.769243	-0.004040	-0.007299	0.000617	-0.002846
31417	10638511	0.098934	-9.750432	-0.022200	-0.004256	-0.002296	0.000401
31418	10638536	0.097064	-9.753352	-0.018314	0.000365	-0.002801	-0.001153
31419	10638561	0.090313	-9.744799	-0.025050	-0.003789	-0.004746	0.002436
31420	10638586	0.113289	-9.717889	-0.028495	-0.001822	-0.003862	0.004938
31421	10638611	0.086058	-9.722394	-0.004407	-0.003771	0.000881	0.001194
31422	10638636	0.114719	-9.747249	-0.031322	-0.001694	-0.002320	-0.000887
31423	10638661	0.108358	-9.731303	-0.024192	-0.002837	-0.003320	-0.007950
31424	10638686	0.118492	-9.752560	-0.021881	-0.009516	-0.002068	-0.000420
31425	10638711	0.087178	-9.754162	-0.036085	-0.008826	0.002463	-0.002444
31426	10638736	0.094474	-9.734428	-0.017432	-0.007243	-0.001131	-0.002472
31427	10638761	0.103276	-9.753869	-0.011258	-0.008750	-0.000258	-0.006057
31428	10638786	0.107623	-9.759121	-0.005480	-0.005662	-0.002918	-0.006396
31429	10638811	0.120523	-9.758091	-0.031013	-0.007886	0.003324	-0.001290
31430	10638836	0.115004	-9.733522	-0.029594	-0.009817	-0.000723	-0.002076
31431	10638861	0.120657	-9.760263	-0.044417	-0.007126	0.003263	-0.003603
31432	10638886	0.097389	-9.733729	-0.029951	-0.010490	-0.001380	-0.000028
31433	10638911	0.117475	-9.744477	-0.024301	-0.009601	0.002839	-0.001228
31434	10638936	0.098758	-9.739083	-0.019368	-0.007227	0.000948	0.002481
31435	10638961	0.114232	-9.747391	-0.022267	-0.004327	-0.002635	-0.005116
31436	10638986	0.120374	-9.746335	-0.024725	-0.004703	-0.000502	-0.002547
31437	10639011	0.133729	-9.756891	-0.005655	-0.008526	0.002913	-0.004627
31438	10639036	0.115112	-9.750181	-0.024637	-0.001128	0.004417	0.001578
31439	10639061	0.102022	-9.728014	-0.026498	0.002003	0.004530	-0.000089
31440	10639086	0.132292	-9.749918	-0.028722	-0.011875	-0.002302	0.001252
31441	10639111	0.124807	-9.730540	0.002137	-0.002795	-0.000149	-0.002736
31442	10639136	0.133806	-9.748298	-0.040610	-0.003932	-0.002745	-0.001724
31443	10639161	0.111517	-9.750718	-0.054866	-0.005151	0.001821	0.001384
31444	10639186	0.109475	-9.745453	-0.029055	-0.008242	0.000076	-0.003879
31445	10639211	0.107208	-9.750835	-0.051082	-0.010310	-0.001176	0.000356
31446	10639236	0.119074	-9.750001	-0.034261	-0.001736	0.002640	-0.004713
31447	10639261	0.101260	-9.745174	-0.022769	-0.009328	0.004460	0.001092
31448	10639286	0.079078	-9.753263	-0.039381	-0.005393	0.001426	0.000237
31449	10639311	0.080741	-9.743679	-0.013486	-0.005065	0.005244	-0.001991
31450	10639336	0.108163	-9.762705	-0.018897	-0.005226	-0.000121	-0.001639
31451	10639361	0.089408	-9.744245	-0.030766	-0.002857	-0.000142	-0.001256
31452	10639386	0.108521	-9.748673	-0.036155	-0.005305	-0.001283	0.001757
31453	10639411	0.096653	-9.759492	-0.020712	-0.003883	-0.001964	0.001557
31454	10639436	0.124959	-9.766584	-0.030524	-0.005357	-0.002128	-0.002360
31455	10639461	0.133433	-9.750567	-0.047253	-0.002098	-0.002012	-0.003257
31456	10639486	0.118506	-9.755534	-0.013699	-0.004902	-0.004061	-0.000250
31457	10639511	0.117346	-9.769098	-0.027546	-0.002058	0.000702	-0.004724
31458	10639536	0.103429	-9.769917	-0.016028	-0.006127	0.000255	0.000866
31459	10639561	0.110615	-9.734891	-0.004577	-0.008087	0.001179	-0.002967
31460	10639586	0.136124	-9.756321	-0.010358	0.000569	-0.001186	-0.001405
31461	10639611	0.124839	-9.753285	-0.031960	-0.006354	-0.001314	-0.006001
31462	10639636	0.124522	-9.739226	-0.020482	-0.006656	-0.001438	-0.000551
31463	10639661	0.119876	-9.746826	-0.024279	-0.007614	-0.003521	-0.000945
31464	10639686	0.091649	-9.740681	-0.014101	-0.010952	0.000678	-0.001484
31465	10639711	0.109421	-9.741585	-0.033806	-0.007272	-0.000226	-0.003622
31466	10639736	0.124035	-9.745646	-0.004171	-0.008501	-0.001474	0.000097
31467	10639761	0.115139	-9.742880	-0.037606	-0.001721	-0.005870	-0.000781
31468	10639786	0.112898	-9.715425	-0.034797	-0.005601	-0.002199	-0.000045
31469	10639811	0.119755	-9.741222	-0.017999	-0.004846	0.000212	-0.001122
31470	10639836	0.116789	-9.732800	-0.012191	-0.001509	-0.002189	-0.000252
31471	10639861	0.137898	-9.733682	-0.030479	0.001822	0.001608	-0.004017
31472	10639886	0.101812	-9.742135	-0.035193	-0.005212	-0.000715	-0.002263
31473	10639911	0.095335	-9.729153	-0.020799	-0.007203	-0.004424	-0.000869
31474	10639936	0.122419	-9.742909	-0.060640	-0.002068	-0.004788	0.000329
31475	10639961	0.108043	-9.750730	-0.026028	-0.001407	-0.001094	0.000350
31476	10639986	0.107927	-9.725487	-0.063457	-0.001308	0.001822	-0.000274
31477	10640011	0.121585	-9.760332	-0.038059	0.001878	0.000128	-0.001128
31478	10640036	0.101524	-9.759676	-0.035633	-0.000790	0.001566	-0.000472
31479	10640061	0.097525	-9.735722	-0.054262	-0.000358	-0.004306	-0.000755
31480	10640086	0.108177	-9.757221	-0.035635	-0.000612	-0.000112	-0.001253
31481	10640111	0.103392	-9.752422	-0.043780	-0.002480	0.000179	-0.001308
31482	10640136	0.119824	-9.734750	-0.037595	-0.002068	-0.000592	-0.001253
31483	10640161	0.111945	-9.753041	-0.026533	0.002350	-0.001231	-0.005695
31484	10640186	0.102198	-9.748083	-0.017368	-0.000188	-0.003459	0.000724
31485	10640211	0.106542	-9.743613	-0.027508	-0.004181	-0.000627	-0.002402
31486	10640236	0.100495	-9.730385	0.002760	0.000532	-0.002098	-0.003251
31487	10640261	0.108262	-9.745425	-0.000092	0.003091	-0.001654	0.001365
31488	10640286	0.109029	-9.726185	-0.016037	-0.001162	0.003566	0.002685
31489	10640311	0.127246	-9.762146	-0.039587	-0.003552	0.000365	0.005300
31490	10640336	0.099247	-9.741050	-0.014547	-0.004785	-0.001663	0.001508
31491	10640361	0.096413	-9.737598	-0.025590	-0.007175	-0.001000	0.000626
31492	10640386	0.105522	-9.741717	-0.027941	-0.000384	-0.003399	0.000340
31493	10640411	0.103805	-9.763013	-0.002147	-0.004953	0.001164	-0.004309
31494	10640436	0.107145	-9.725255	-0.017491	-0.005525	-0.000447	0.001258
31495	10640461	0.107071	-9.752427	-0.009289	-0.003481	-0.002949	-0.006005
31496	10640486	0.077211	-9.726006	-0.023585	-0.008622	0.006600	-0.001897
31497	10640511	0.110067	-9.735370	-0.005075	-0.007689	-0.000875	0.000429
31498	10640536	0.113067	-9.742475	-0.003582	-0.004353	-0.003411	-0.001837
31499	10640561	0.117413	-9.748155	-0.000808	-0.009145	-0.003755	-0.002341
31500	10640586	0.122521	-9.747333	0.012184	-0.004363	-0.000758	-0.000410
31501	10640611	0.095214	-9.751384	-0.025155	-0.011286	-0.003086	-0.005212
31502	10640636	0.129086	-9.756706	-0.021872	-0.003804	0.001375	-0.004891
31503	10640661	0.128078	-9.762149	-0.007512	-0.006136	-0.003764	-0.002670
31504	10640686	0.072514	-9.730922	-0.016416	-0.009859	0.000559	-0.004619
31505	10640711	0.109839	-9.750133	-0.001731	-0.009863	-0.001378	-0.004373
31506	10640736	0.087716	-9.727883	-0.016369	-0.001739	-0.005308	-0.003260
31507	10640761	0.117297	-9.780977	0.005018	-0.006574	-0.002094	-0.003684
31508	10640786	0.110335	-9.750360	-0.016982	-0.002509	0.003415	0.000952
31509	10640811	0.099778	-9.743399	-0.016015	-0.004569	-0.004828	-0.000496
31510	10640836	0.105505	-9.736584	-0.022694	-0.003046	-0.000226	-0.003362
31511	10640861	0.113526	-9.760783	-0.046298	-0.008428	0.000007	-0.000843
31512	10640886	0.124501	-9.759259	-0.044845	-0.003766	-0.005792	-0.000955
31513	10640911	0.127259	-9.760921	-0.027120	-0.002174	-0.001763	-0.004531
31514	10640936	0.105298	-9.749023	-0.047206	-0.007534	-0.000040	-0.001492
31515	10640961	0.093262	-9.707093	-0.037517	-0.003266	-0.001124	0.000034
31516	10640986	0.088234	-9.729259	-0.019285	-0.004524	-0.000253	-0.004958
31517	10641011	0.112579	-9.764867	-0.028896	0.000016	-0.000045	-0.005035
31518	10641036	0.096574	-9.745037	-0.035178	-0.005615	0.002390	-0.001094
31519	10641061	0.123535	-9.771919	-0.024254	-0.004433	-0.000952	-0.000669
31520	10641086	0.106142	-9.749681	-0.034250	-0.005902	-0.000912	0.000551
31521	10641111	0.116044	-9.751802	-0.011283	-0.002693	0.000949	0.000495
31522	10641136	0.113846	-9.754306	-0.035705	-0.004444	-0.002567	-0.000294
31523	10641161	0.130334	-9.736472	-0.041069	-0.004931	-0.001027	0.001124
31524	10641186	0.106736	-9.765476	-0.024722	-0.008985	0.001749	0.000639
31525	10641211	0.108014	-9.747558	-0.016476	-0.003240	0.001767	-0.006047
31526	10641236	0.109294	-9.740371	-0.019898	-0.007160	-0.001775	-0.002076
31527	10641261	0.123602	-9.743136	-0.014182	-0.004540	0.002596	-0.002186
31528	10641286	0.131703	-9.742051	-0.016178	-0.004777	0.004144	-0.001991
31529	10641311	0.109559	-9.753836	-0.039064	-0.006595	0.002888	-0.000960
31530	10641336	0.082981	-9.740520	-0.000538	-0.001501	-0.002058	0.000986
31531	10641361	0.103131	-9.741902	-0.018404	-0.005531	-0.002594	-0.002088
31532	10641386	0.116290	-9.759164	-0.026651	-0.009066	-0.004204	-0.002024
31533	10641411	0.108323	-9.750170	-0.000217	-0.003009	-0.001377	-0.001121
31534	10641436	0.109455	-9.755999	-0.021355	-0.008067	0.005192	0.002579
31535	10641461	0.081884	-9.714125	-0.021196	-0.005406	-0.002596	-0.003879
31536	10641486	0.089851	-9.736532	-0.038982	-0.005659	0.001670	-0.002320
31537	10641511	0.093795	-9.751771	-0.031855	-0.010666	0.004168	-0.002739
31538	10641536	0.114550	-9.735582	-0.018874	-0.000879	-0.000131	-0.006187
31539	10641561	0.130509	-9.761440	-0.021433	-0.005257	-0.005363	-0.001656
31540	10641586	0.099841	-9.735565	-0.031816	-0.004558	-0.005162	-0.003318
31541	10641611	0.080945	-9.714985	-0.027902	-0.006366	-0.004673	-0.003052
31542	10641636	0.113845	-9.723801	-0.014126	-0.003919	-0.000948	-0.002211
31543	10641661	0.086847	-9.726095	-0.040791	0.000337	0.000295	-0.000863
31544	10641686	0.098552	-9.746079	-0.027400	0.002229	-0.003560	-0.005959
31545	10641711	0.112148	-9.748112	-0.070163	-0.002514	-0.001262	-0.007923
31546	10641736	0.120923	-9.740675	-0.052452	-0.000222	-0.002562	-0.001842
31547	10641761	0.108927	-9.744512	-0.028593	-0.011025	-0.002818	-0.000472
31548	10641786	0.108050	-9.745783	-0.039493	-0.003442	0.004493	-0.001411
31549	10641811	0.085268	-9.716434	-0.022603	-0.001264	0.002196	-0.002582
31550	10641836	0.098284	-9.713314	-0.060986	0.000535	-0.000359	-0.004978
31551	10641861	0.103898	-9.753452	-0.038008	-0.001359	-0.000970	-0.003238
31552	10641886	0.111690	-9.740411	-0.016091	-0.009957	-0.000349	-0.003797
31553	10641911	0.146436	-9.777868	-0.020055	-0.002378	0.001153	-0.001433
31554	10641936	0.127894	-9.771888	-0.023291	-0.002588	0.001265	-0.006370
31555	10641961	0.118823	-9.743113	-0.018930	-0.000955	0.000656	-0.000285
31556	10641986	0.112909	-9.728740	-0.002138	-0.003327	-0.001395	-0.002918
31557	10642011	0.121559	-9.723907	-0.031891	-0.002977	-0.006744	-0.003013
31558	10642036	0.148200	-9.725176	-0.020025	-0.000146	-0.001013	-0.004146
31559	10642061	0.109748	-9.739518	-0.013064	0.002518	-0.002128	-0.002362
31560	10642086	0.103917	-9.731066	-0.012191	-0.005740	0.002059	-0.001805
31561	10642111	0.107954	-9.745137	-0.019875	-0.006239	0.001594	-0.003085
31562	10642136	0.108324	-9.750239	0.004153	-0.002506	-0.000989	-0.003369
31563	10642161	0.099762	-9.747392	-0.002586	-0.007740	-0.005409	-0.000809
31564	10642186	0.131944	-9.765456	-0.005574	-0.001280	0.000514	-0.005481
31565	10642211	0.107318	-9.755260	0.021311	-0.006765	0.002302	-0.001220
31566	10642236	0.123267	-9.749020	-0.032919	-0.006858	0.003336	-0.000192
31567	10642261	0.119317	-9.746033	-0.014225	-0.007235	0.000872	-0.000264
31568	10642286	0.096450	-9.741992	-0.016911	-0.006382	-0.001632	0.001322
31569	10642311	0.122369	-9.720856	-0.014234	-0.005658	0.001480	-0.001484
31570	10642336	0.115762	-9.731011	-0.006054	-0.009471	0.000568	-0.003083
31571	10642361	0.102407	-9.735078	0.001200	-0.008427	-0.005867	0.001690
31572	10642386	0.094221	-9.725457	-0.014589	-0.008760	0.000790	0.002299
31573	10642411	0.113541	-9.746242	-0.004605	-0.007312	0.005785	0.001939
31574	10642436	0.115314	-9.759734	-0.020863	-0.006887	-0.000618	-0.005019
31575	10642461	0.102212	-9.736512	-0.030350	-0.002165	-0.001955	-0.005232
31576	10642486	0.122416	-9.754311	-0.028522	-0.001198	-0.006263	-0.002696
31577	10642511	0.096978	-9.772963	-0.039920	-0.002827	0.003144	-0.001740
31578	10642536	0.094754	-9.748308	-0.040468	-0.008169	-0.000179	-0.001745
31579	10642561	0.109609	-9.751312	-0.049179	-0.008285	0.001694	-0.001538
31580	10642586	0.104981	-9.757987	-0.050639	-0.014101	-0.003068	-0.004372
31581	10642611	0.088441	-9.742808	-0.032750	-0.007966	-0.000240	0.000496
31582	10642636	0.104080	-9.732578	-0.037602	-0.007972	-0.000502	-0.002640
31583	10642661	0.105624	-9.752310	-0.017928	-0.004312	-0.002499	-0.000679
31584	10642686	0.104794	-9.746711	-0.043818	-0.004987	-0.001681	-0.004523
31585	10642711	0.097993	-9.745580	-0.029925	-0.008228	-0.000182	-0.000595
31586	10642736	0.106328	-9.757653	-0.040517	-0.009443	-0.000663	-0.004373
31587	10642761	0.106394	-9.777480	-0.016041	-0.006877	-0.000222	0.000501
31588	10642786	0.085119	-9.717589	-0.008735	-0.004512	-0.004506	-0.000623
31589	10642811	0.072484	-9.737217	-0.007323	-0.011393	-0.002944	0.002486
31590	10642836	0.097417	-9.731761	-0.034321	-0.011253	-0.003988	-0.004129
31591	10642861	0.095954	-9.724060	-0.043371	-0.009876	-0.003126	-0.005023
31592	10642886	0.097109	-9.751015	-0.016450	-0.004828	-0.000907	-0.007400
31593	10642911	0.107147	-9.719920	-0.025186	-0.007497	0.001125	-0.001033
31594	10642936	0.099431	-9.713417	-0.022231	-0.004837	0.000076	0.000812
31595	10642961	0.108276	-9.738141	-0.011247	-0.005576	-0.003302	-0.001383
31596	10642986	0.121098	-9.735595	-0.012331	-0.009708	-0.004342	-0.002918
31597	10643011	0.105388	-9.773702	-0.015112	-0.007106	-0.005199	0.000918
31598	10643036	0.129851	-9.750670	-0.012348	-0.007005	-0.000414	-0.000599
31599	10643061	0.111477	-9.723681	-0.023795	-0.010121	0.001208	0.001283
31600	10643086	0.088870	-9.739785	-0.013051	-0.002836	-0.001332	-0.009523
31601	10643111	0.130379	-9.738213	-0.051128	-0.003403	0.001268	-0.000216
31602	10643136	0.121878	-9.775344	-0.050179	-0.010096	-0.006421	-0.004341
31603	10643161	0.148912	-9.776604	-0.038255	-0.002468	-0.000210	0.000155
31604	10643186	0.112320	-9.736543	-0.050531	-0.001626	-0.000782	-0.002728
31605	10643211	0.127396	-9.731829	-0.036215	-0.001419	-0.003035	-0.000881
31606	10643236	0.108142	-9.720820	-0.027534	-0.001806	-0.002906	-0.000304
31607	10643261	0.070130	-9.727531	-0.022982	-0.002117	-0.003242	-0.002669
31608	10643286	0.104442	-9.736270	-0.012619	-0.000980	-0.002705	-0.000365
31609	10643311	0.132398	-9.752131	-0.038601	0.000890	0.003143	-0.001879
31610	10643336	0.101772	-9.740405	-0.024217	-0.008345	0.005233	-0.005755
31611	10643361	0.109082	-9.756392	-0.027496	-0.002931	-0.001898	-0.002664
31612	10643386	0.127388	-9.765964	-0.038132	-0.001378	0.001676	-0.003684
31613	10643411	0.104948	-9.771103	-0.030380	-0.003900	0.000677	-0.000337
31614	10643436	0.110736	-9.724158	-0.055813	-0.002633	-0.003116	-0.001328
31615	10643461	0.114363	-9.765398	-0.023722	-0.003856	-0.000679	0.001252
31616	10643486	0.102001	-9.735310	-0.015530	-0.006036	0.003935	0.001734
31617	10643511	0.080256	-9.742318	-0.009200	-0.007990	0.002138	-0.004099
31618	10643536	0.116302	-9.727759	-0.032395	-0.007102	0.001010	0.002876
31619	10643561	0.100131	-9.737903	-0.003571	-0.007859	-0.001727	-0.002269
31620	10643586	0.143625	-9.734416	-0.040156	-0.003958	0.000416	-0.000539
31621	10643611	0.091796	-9.741807	-0.033650	-0.003318	0.002359	-0.002638
31622	10643636	0.112131	-9.738469	-0.017925	-0.001073	0.002335	-0.002076
31623	10643661	0.092132	-9.743082	-0.011575	-0.001200	-0.001667	-0.000292
31624	10643686	0.104342	-9.747589	-0.048578	-0.002974	0.001588	-0.002132
31625	10643711	0.107439	-9.701223	-0.037109	-0.002900	-0.002342	0.003359
31626	10643736	0.102228	-9.762245	0.008442	-0.004815	-0.000829	-0.000732
31627	10643761	0.124653	-9.714585	-0.018038	-0.001983	-0.003237	0.001167
31628	10643786	0.122348	-9.755303	-0.025622	-0.001600	-0.001022	0.002532
31629	10643811	0.092504	-9.756510	-0.033180	-0.003529	-0.005533	-0.004797
31630	10643836	0.096849	-9.742111	-0.009234	-0.002456	-0.002657	-0.000620
31631	10643861	0.098356	-9.758597	0.015203	-0.001557	0.001557	-0.000852
31632	10643886	0.076276	-9.726948	-0.024440	0.000641	-0.001252	0.000991
31633	10643911	0.116235	-9.757638	-0.033299	-0.003327	0.000617	-0.002456
31634	10643936	0.093020	-9.740299	-0.006366	-0.003865	-0.004366	0.000915
31635	10643961	0.096518	-9.751522	-0.014007	-0.002405	-0.002208	-0.000742
31636	10643986	0.099269	-9.732281	-0.029387	-0.003451	-0.003782	-0.003570
31637	10644011	0.102430	-9.716427	-0.040464	-0.006786	-0.001249	-0.000215
31638	10644036	0.125725	-9.753368	-0.025662	-0.002310	0.000755	-0.004201
31639	10644061	0.132005	-9.726598	-0.033362	-0.000721	-0.004627	0.002508
31640	10644086	0.099070	-9.726006	-0.005905	-0.003883	0.002088	-0.002259
31641	10644111	0.097181	-9.752552	-0.040002	-0.010057	-0.003055	0.000171
31642	10644136	0.111517	-9.733190	-0.022298	-0.005330	-0.004447	0.005022
31643	10644161	0.100515	-9.729213	-0.012132	-0.003287	0.001717	-0.000401
31644	10644186	0.133522	-9.769422	-0.024315	-0.003989	-0.000823	-0.001056
31645	10644211	0.119550	-9.754348	-0.029087	-0.009546	0.002959	-0.002241
31646	10644236	0.116211	-9.755902	-0.022837	-0.008896	0.000317	-0.002699
31647	10644261	0.090657	-9.730946	-0.030843	-0.010413	-0.003901	0.000298
31648	10644286	0.097290	-9.751451	0.012746	-0.007671	-0.005850	-0.000620
31649	10644311	0.117625	-9.754431	-0.024721	-0.006208	-0.003445	-0.002027
31650	10644336	0.116316	-9.736198	-0.007483	-0.008132	-0.003411	-0.001635
31651	10644361	0.074173	-9.738647	-0.037441	-0.005262	-0.003231	-0.004201
31652	10644386	0.112608	-9.737926	-0.022305	-0.007339	-0.004169	-0.000359
31653	10644411	0.115860	-9.735638	-0.013697	-0.005870	-0.001755	-0.000031
31654	10644436	0.138932	-9.743760	-0.022459	-0.009009	-0.002077	-0.003166
31655	10644461	0.113861	-9.768002	-0.008897	-0.007464	-0.002301	-0.002851
31656	10644486	0.102819	-9.749770	-0.031351	-0.002822	-0.005315	-0.001276
31657	10644511	0.120842	-9.732140	-0.052966	-0.003968	-0.001466	-0.001438
31658	10644536	0.133025	-9.762643	-0.033389	-0.002098	-0.001948	-0.002675
31659	10644561	0.130383	-9.737842	-0.044436	-0.006573	-0.004162	-0.002606
31660	10644586	0.100250	-9.727452	-0.034731	-0.007798	-0.002056	-0.006178
31661	10644611	0.104022	-9.719108	-0.049479	0.001448	-0.000668	-0.003436
31662	10644636	0.097941	-9.747643	-0.018825	-0.003964	-0.001526	-0.001182
31663	10644661	0.096209	-9.751052	-0.045207	-0.002314	0.001283	0.001654
31664	10644686	0.109129	-9.757803	-0.027995	-0.003092	-0.003001	-0.003888
31665	10644711	0.128918	-9.748727	-0.016084	-0.001368	0.001290	-0.001690
31666	10644736	0.132283	-9.734450	-0.047277	-0.000685	-0.000246	-0.004524
31667	10644761	0.098579	-9.749661	-0.041401	-0.007319	-0.000422	0.001009
31668	10644786	0.131181	-9.763450	-0.043921	-0.002100	-0.001562	-0.000617
31669	10644811	0.116076	-9.776485	-0.041904	-0.000590	0.000986	-0.001764
31670	10644836	0.142814	-9.750541	-0.041086	-0.001752	0.001879	0.002156
31671	10644861	0.103542	-9.732588	-0.037086	-0.004926	0.000918	0.003062
31672	10644886	0.080027	-9.722402	-0.038862	0.001030	-0.002782	0.007772
31673	10644911	0.105866	-9.726977	-0.029836	0.002837	-0.005856	0.000891
31674	10644936	0.092697	-9.743838	-0.023118	-0.000654	0.001112	-0.003420
31675	10644961	0.100276	-9.733987	-0.041346	-0.001641	0.000134	-0.000352
31676	10644986	0.117549	-9.758472	-0.008354	-0.001124	0.000012	0.000608
31677	10645011	0.113332	-9.728712	-0.003135	-0.003454	0.002876	-0.000007
31678	10645036	0.105198	-9.758550	-0.013629	-0.003977	-0.005209	-0.000310
31679	10645061	0.097261	-9.742790	0.004717	0.001107	-0.001824	-0.000429
31680	10645086	0.109061	-9.728157	-0.012182	-0.001392	-0.001675	0.001368
31681	10645111	0.105437	-9.743511	-0.003562	-0.006005	-0.001633	-0.001569
31682	10645136	0.111236	-9.754449	0.002657	-0.003000	0.000429	-0.001046
31683	10645161	0.105829	-9.729152	-0.011681	-0.002819	-0.005582	-0.003967
31684	10645186	0.103659	-9.749143	-0.009764	-0.003712	0.000538	-0.004898
31685	10645211	0.088595	-9.717326	-0.024082	-0.004227	-0.003414	-0.003633
31686	10645236	0.103979	-9.733332	-0.019415	-0.007179	-0.000747	-0.000210
31687	10645261	0.105515	-9.741376	-0.019888	-0.007744	0.000402	-0.004753
31688	10645286	0.104033	-9.738082	-0.018903	-0.005688	-0.003752	-0.000936
31689	10645311	0.112021	-9.730964	-0.012736	-0.007984	-0.001991	-0.003681
31690	10645336	0.108087	-9.753543	-0.028579	-0.009421	-0.003174	-0.002208
31691	10645361	0.102175	-9.769039	-0.043900	-0.013229	0.000124	-0.000767
31692	10645386	0.096407	-9.738642	-0.019366	-0.010316	0.001141	0.000128
31693	10645411	0.103378	-9.754513	-0.030945	-0.008927	-0.004719	-0.003177
31694	10645436	0.106033	-9.734925	-0.037654	-0.009850	-0.001635	-0.003031
31695	10645461	0.106282	-9.749577	-0.041520	-0.011945	-0.002646	-0.007391
31696	10645486	0.131266	-9.737161	-0.026245	-0.007652	0.001301	-0.007513
31697	10645511	0.084607	-9.735126	-0.041778	-0.003964	-0.001335	-0.000668
31698	10645536	0.096361	-9.730381	-0.032324	-0.008084	-0.000627	-0.000659
31699	10645561	0.113199	-9.733783	-0.044336	-0.003965	-0.001727	-0.003108
31700	10645586	0.120723	-9.741629	-0.020919	-0.008401	-0.004706	0.000986
31701	10645611	0.131290	-9.742337	-0.028086	-0.001673	-0.002976	-0.000945
31702	10645636	0.120979	-9.754234	-0.034745	-0.001001	-0.004129	-0.000246
31703	10645661	0.101063	-9.738821	-0.004043	-0.008380	-0.001408	-0.000146
31704	10645686	0.099049	-9.749233	-0.038509	-0.006475	-0.005382	-0.002864
31705	10645711	0.096092	-9.745763	-0.019232	0.000605	-0.002623	-0.006524
31706	10645736	0.110897	-9.749138	-0.034739	-0.003687	-0.002292	-0.000103
31707	10645761	0.115627	-9.754122	-0.015161	-0.007987	0.000405	-0.000015
31708	10645786	0.116431	-9.760807	-0.043360	-0.002600	0.001656	-0.005083
31709	10645811	0.099070	-9.711218	-0.042343	-0.003912	-0.001138	-0.001763
31710	10645836	0.080207	-9.736997	-0.016387	-0.005914	-0.004795	-0.003566
31711	10645861	0.102428	-9.766680	-0.011204	-0.005776	-0.000785	0.000358
31712	10645886	0.103697	-9.749466	-0.019240	0.003943	-0.000285	-0.000371
31713	10645911	0.096164	-9.721070	-0.020775	-0.004539	-0.001079	0.002031
31714	10645936	0.095365	-9.736431	-0.009769	-0.005350	-0.003944	0.001305
31715	10645961	0.113353	-9.750784	-0.049186	-0.008047	-0.001526	0.004020
31716	10645986	0.093466	-9.736395	-0.013562	-0.005695	-0.003362	0.000733
31717	10646011	0.097274	-9.722786	-0.032351	-0.010650	-0.004752	-0.002211
31718	10646036	0.089650	-9.724395	-0.026025	-0.007591	-0.006571	-0.004150
31719	10646061	0.086506	-9.745954	-0.014545	-0.010055	-0.003448	-0.005221
31720	10646086	0.099751	-9.747487	0.003178	-0.004548	-0.003418	-0.002797
31721	10646111	0.085793	-9.726011	-0.016446	-0.008135	0.000848	-0.002381
31722	10646136	0.105903	-9.741952	-0.012284	-0.009322	0.002457	0.003532
31723	10646161	0.106808	-9.734850	-0.011256	-0.007041	0.006942	-0.002803
31724	10646186	0.098837	-9.742803	-0.024160	-0.008391	-0.000890	0.002165
31725	10646211	0.116441	-9.744620	-0.015604	-0.005302	-0.003743	0.000091
31726	10646236	0.120478	-9.757215	-0.026640	-0.005277	0.003879	0.000767
31727	10646261	0.099423	-9.751775	-0.026522	-0.004572	-0.000107	0.003569
31728	10646286	0.077518	-9.755582	-0.012949	-0.001083	-0.001213	0.001122
31729	10646311	0.094163	-9.752382	-0.022277	-0.009146	-0.001349	0.003189
31730	10646336	0.109007	-9.753102	-0.026112	-0.005840	0.001283	-0.001550
31731	10646361	0.103454	-9.765064	-0.023714	-0.006945	-0.002488	-0.002852
31732	10646386	0.115825	-9.765432	-0.020405	-0.007144	-0.002429	-0.004454
31733	10646411	0.121546	-9.757344	-0.047728	-0.006455	-0.001633	-0.000733
31734	10646436	0.151607	-9.761779	-0.044086	-0.007468	0.002222	0.001851
31735	10646461	0.112894	-9.742016	-0.064906	-0.003996	-0.002490	0.000606
31736	10646486	0.135055	-9.772026	-0.038691	-0.003925	-0.002690	0.000596
31737	10646511	0.103449	-9.753299	-0.048105	-0.004315	-0.000629	-0.001690
31738	10646536	0.121880	-9.749036	-0.032870	-0.005539	-0.000395	-0.002459
31739	10646561	0.109337	-9.736122	-0.049550	-0.002220	-0.001355	0.005928
31740	10646586	0.104726	-9.741979	-0.042878	-0.007728	-0.003859	-0.001511
31741	10646611	0.110110	-9.760647	-0.028032	-0.003657	-0.001398	-0.004013
31742	10646636	0.131896	-9.757231	-0.016132	-0.005050	0.002323	-0.003792
31743	10646661	0.117251	-9.765232	-0.031410	-0.003780	-0.003201	0.001816
31744	10646686	0.110532	-9.732397	-0.012767	-0.010809	0.005144	0.003165
31745	10646711	0.107863	-9.733145	-0.028542	-0.007711	-0.002500	-0.003296
31746	10646736	0.101987	-9.731072	-0.013170	-0.006944	-0.004417	0.000349
31747	10646761	0.105581	-9.732919	-0.044787	-0.003219	0.003259	-0.003792
31748	10646786	0.112978	-9.733842	-0.009871	-0.006892	-0.000228	-0.003093
31749	10646811	0.119513	-9.748922	-0.042027	-0.008333	0.001371	0.001985
31750	10646836	0.113720	-9.748244	-0.029010	-0.006405	0.003085	-0.001217
31751	10646861	0.125279	-9.754740	-0.029600	-0.009522	-0.002021	-0.002779
31752	10646886	0.086477	-9.737585	-0.034690	-0.010979	-0.004362	-0.000858
31753	10646911	0.094424	-9.725201	-0.031311	-0.006372	-0.002024	0.000291
31754	10646936	0.108039	-9.746025	-0.023730	-0.006883	-0.000425	-0.004376
31755	10646961	0.088331	-9.740609	-0.020675	0.001326	-0.002989	-0.001851
31756	10646986	0.134948	-9.776772	-0.007500	-0.002544	0.002176	-0.002071
31757	10647011	0.107955	-9.736198	-0.045752	-0.003159	-0.000536	-0.000215
31758	10647036	0.084679	-9.743750	-0.036480	-0.001778	-0.003879	-0.000948
31759	10647061	0.094394	-9.718983	-0.034615	-0.003080	0.002873	-0.003856
31760	10647086	0.099555	-9.752149	-0.033766	-0.004883	-0.000834	-0.002338
31761	10647111	0.118569	-9.757651	-0.030443	-0.003767	-0.001386	0.002535
31762	10647136	0.126378	-9.776378	-0.009400	-0.006285	-0.005189	-0.001650
31763	10647161	0.115016	-9.747718	-0.000234	-0.003694	-0.002237	-0.003050
31764	10647186	0.112268	-9.736666	-0.042474	-0.008796	-0.000647	-0.003284
31765	10647211	0.089243	-9.736948	-0.012112	-0.006375	-0.000347	-0.003542
31766	10647236	0.113435	-9.740268	0.007447	-0.003548	-0.002688	-0.004207
31767	10647261	0.114875	-9.735304	-0.005011	-0.002113	-0.001368	-0.002412
31768	10647286	0.136213	-9.762269	-0.024345	-0.006640	-0.004023	0.000793
31769	10647311	0.104620	-9.739332	-0.029851	0.000234	-0.002812	-0.003257
31770	10647336	0.118697	-9.736597	-0.010332	-0.003015	-0.001116	-0.000028
31771	10647361	0.109812	-9.739244	-0.030874	-0.003330	-0.003454	-0.001836
31772	10647386	0.108447	-9.750753	-0.024094	0.000434	-0.000599	0.002591
31773	10647411	0.113115	-9.743273	-0.013667	-0.003895	0.000283	-0.002077
31774	10647436	0.119465	-9.760933	-0.001255	-0.005496	0.000250	-0.002649
31775	10647461	0.133251	-9.758677	-0.013283	-0.008622	-0.003667	0.002725
31776	10647486	0.096136	-9.750348	-0.029397	-0.004353	-0.003600	-0.001965
31777	10647511	0.103107	-9.738594	-0.017479	-0.005776	0.001213	-0.002323
31778	10647536	0.119600	-9.750305	-0.044870	-0.005364	-0.000006	-0.002582
31779	10647561	0.109811	-9.736210	-0.043344	-0.002894	-0.000793	0.000416
31780	10647586	0.114685	-9.739010	-0.042481	-0.007391	0.001766	-0.002190
31781	10647611	0.089713	-9.759757	-0.040912	-0.008985	-0.001109	-0.005972
31782	10647636	0.084201	-9.742821	-0.035098	-0.005488	0.000122	-0.002842
31783	10647661	0.091292	-9.741360	-0.032243	-0.004739	-0.001347	-0.001310
31784	10647686	0.069139	-9.712980	-0.044122	-0.003518	-0.003722	-0.004339
31785	10647711	0.121273	-9.769466	-0.031415	-0.005005	-0.001624	-0.007403
31786	10647736	0.094127	-9.745735	-0.023159	-0.004730	-0.001669	-0.001954
31787	10647761	0.100036	-9.727210	-0.018847	-0.003649	-0.002934	0.002141
31788	10647786	0.065259	-9.711242	-0.037420	-0.003950	0.002153	-0.004305
31789	10647811	0.102882	-9.760242	-0.028443	-0.001957	-0.000069	0.000289
31790	10647836	0.102581	-9.740954	-0.017907	-0.003511	0.002944	0.002171
31791	10647861	0.099360	-9.737979	-0.029890	-0.006036	-0.000988	-0.003867
31792	10647886	0.116734	-9.719823	-0.023706	-0.000490	-0.004445	-0.004095
31793	10647911	0.095996	-9.734064	-0.039423	-0.001971	0.000381	-0.002334
31794	10647936	0.117549	-9.749781	-0.018453	-0.004132	-0.000179	-0.002788
31795	10647961	0.091881	-9.727067	-0.003997	-0.006306	0.002050	0.000960
31796	10647986	0.112574	-9.747179	-0.005933	-0.000055	-0.003129	0.003985
31797	10648011	0.108325	-9.746718	-0.008872	-0.008173	-0.001985	-0.000729
31798	10648036	0.118043	-9.754680	-0.008428	-0.005598	-0.000788	-0.003998
31799	10648061	0.114139	-9.741084	-0.031347	-0.000533	-0.000696	-0.002797
31800	10648086	0.083157	-9.744112	-0.013002	-0.001286	-0.001417	-0.004268
31801	10648111	0.102043	-9.765416	-0.032226	0.000095	-0.002295	-0.000235
31802	10648136	0.134770	-9.760565	-0.012802	-0.005357	0.002258	-0.000142
31803	10648161	0.128169	-9.768282	-0.009900	-0.003673	0.001319	-0.002712
31804	10648186	0.118711	-9.729414	-0.015619	-0.004536	0.000000	-0.005983
31805	10648211	0.118496	-9.758006	-0.007454	-0.005227	-0.002265	-0.003493
31806	10648236	0.119630	-9.769219	-0.017980	-0.003052	-0.001830	0.000601
31807	10648261	0.116049	-9.762491	0.005561	-0.001949	-0.002064	0.002719
31808	10648286	0.118040	-9.762830	-0.002668	-0.002566	-0.001045	-0.000934
31809	10648311	0.089946	-9.756851	-0.013108	-0.009549	-0.001045	-0.003284
31810	10648336	0.101458	-9.726393	-0.009768	-0.004837	-0.002451	-0.002404
31811	10648361	0.103636	-9.745193	-0.019876	-0.006789	0.001073	0.000696
31812	10648386	0.127257	-9.761410	-0.025674	-0.001985	-0.003439	-0.002742
31813	10648411	0.108739	-9.728795	-0.032846	-0.005534	-0.000390	-0.001818
31814	10648436	0.107024	-9.741044	-0.039978	-0.005247	0.005111	0.000840
31815	10648461	0.106520	-9.750521	-0.009803	-0.003622	0.001901	-0.001487
31816	10648486	0.099265	-9.729056	-0.023641	-0.003500	-0.002374	-0.006129
31817	10648511	0.113800	-9.744780	-0.038610	-0.006482	-0.003062	-0.003816
31818	10648536	0.087651	-9.733349	-0.000142	-0.006846	0.002751	-0.002305
31819	10648561	0.110726	-9.735882	-0.032843	-0.004451	0.002024	0.000052
31820	10648586	0.108354	-9.739780	-0.028047	-0.007972	0.002088	0.001283
31821	10648611	0.123435	-9.758931	-0.036278	-0.006217	-0.001112	-0.000472
31822	10648636	0.109573	-9.759564	-0.036648	-0.005952	-0.003168	0.003105
31823	10648661	0.082043	-9.730202	-0.024985	-0.003847	-0.000943	0.000615
31824	10648686	0.106858	-9.732654	-0.029960	-0.005479	-0.001870	0.003237
31825	10648711	0.126090	-9.747160	-0.028141	-0.009336	-0.001752	-0.001560
31826	10648736	0.098811	-9.725020	-0.039038	-0.004981	-0.003941	-0.003378
31827	10648761	0.120602	-9.727965	-0.015628	-0.004885	-0.000972	-0.005546
31828	10648786	0.104278	-9.747831	-0.033296	-0.005917	0.001271	-0.005847
31829	10648811	0.097751	-9.719801	-0.040465	-0.007083	0.000097	-0.000724
31830	10648836	0.130348	-9.731635	-0.046858	-0.007719	0.001760	-0.003344
31831	10648861	0.116153	-9.749816	-0.017019	-0.003740	0.001112	-0.007649
31832	10648886	0.116831	-9.769382	-0.039492	0.001094	-0.003108	0.005586
31833	10648911	0.074866	-9.729773	-0.026887	-0.006820	0.000371	0.003326
31834	10648936	0.086480	-9.749329	-0.011066	-0.000617	-0.002047	-0.000486
31835	10648961	0.133261	-9.751974	-0.018082	-0.006035	-0.000793	-0.002334
31836	10648986	0.094793	-9.716688	-0.028836	0.002727	0.001431	-0.004070
31837	10649011	0.092467	-9.731186	-0.014001	-0.002696	0.001147	-0.000598
31838	10649036	0.118304	-9.747931	-0.014119	-0.002085	-0.003476	0.008033
31839	10649061	0.100276	-9.740901	-0.023630	-0.002061	-0.000978	-0.001827
31840	10649086	0.103021	-9.741688	-0.001104	-0.001261	0.000136	-0.000994
31841	10649111	0.117900	-9.743153	-0.016987	-0.000204	-0.001344	-0.004981
31842	10649136	0.112446	-9.722292	-0.020799	-0.002849	0.001718	-0.002268
31843	10649161	0.114333	-9.734051	0.005029	-0.003232	-0.002617	-0.004148
31844	10649186	0.097693	-9.731597	-0.013575	-0.003785	-0.000872	0.000675
31845	10649211	0.120754	-9.770161	-0.048134	0.000104	0.001784	0.000934
31846	10649236	0.104605	-9.738708	-0.039055	-0.006990	0.003527	0.001287
31847	10649261	0.109693	-9.739142	-0.006977	-0.006907	-0.007911	-0.002557
31848	10649286	0.099344	-9.743720	-0.026022	-0.003864	-0.000489	-0.000282
31849	10649311	0.106229	-9.752411	-0.041930	-0.005765	-0.001104	0.000425
31850	10649336	0.100800	-9.732920	-0.048549	-0.002465	-0.002015	0.001116
31851	10649361	0.121775	-9.737480	-0.044353	-0.002763	0.001277	-0.000341
31852	10649386	0.115417	-9.698981	-0.021808	-0.003105	-0.002086	0.002015
31853	10649411	0.104646	-9.749584	-0.011314	-0.010087	-0.000156	-0.003605
31854	10649436	0.098042	-9.753447	-0.012197	-0.010571	-0.003460	-0.006048
31855	10649461	0.128999	-9.743653	-0.037705	-0.005583	-0.001045	-0.003038
31856	10649486	0.121545	-9.765315	-0.023288	-0.006102	-0.002858	-0.001700
31857	10649511	0.092876	-9.763413	-0.015514	-0.006779	-0.001577	-0.001951
31858	10649536	0.092749	-9.749061	-0.023664	-0.008070	-0.005022	0.001755
31859	10649561	0.108285	-9.735555	-0.025161	-0.006674	-0.000733	-0.000790
31860	10649586	0.129996	-9.749365	-0.034916	-0.006869	0.001462	-0.001872
31861	10649611	0.096902	-9.738642	-0.019401	-0.008081	0.001176	-0.002569
31862	10649636	0.127494	-9.747973	-0.004541	-0.001869	-0.003509	-0.007100
31863	10649661	0.112853	-9.758740	-0.025574	-0.000864	-0.002302	0.001560
31864	10649686	0.107941	-9.745609	-0.019406	-0.005339	-0.000714	-0.001818
31865	10649711	0.119356	-9.738647	-0.031463	-0.007220	-0.001587	-0.000408
31866	10649736	0.090279	-9.734271	-0.031300	-0.005931	-0.002280	-0.005478
31867	10649761	0.069131	-9.719401	-0.028325	-0.008383	0.000389	-0.004233
31868	10649786	0.081039	-9.721761	-0.019246	-0.005601	-0.002663	-0.005673
31869	10649811	0.094715	-9.709130	-0.027040	-0.008254	0.000328	-0.004047
31870	10649836	0.107278	-9.744875	-0.068779	-0.007349	-0.003849	-0.000805
31871	10649861	0.098371	-9.724276	-0.057718	-0.006725	-0.001186	-0.000480
31872	10649886	0.096546	-9.734997	-0.040439	-0.007451	-0.002955	-0.006066
31873	10649911	0.124959	-9.761243	-0.038590	-0.001568	0.001545	-0.003310
31874	10649936	0.131186	-9.764902	-0.042999	-0.004962	0.003751	-0.002772
31875	10649961	0.100506	-9.761988	-0.009786	-0.008489	-0.000386	-0.004189
31876	10649986	0.106905	-9.767586	-0.041940	-0.006370	-0.004537	-0.000438
31877	10650011	0.079579	-9.743110	-0.050980	-0.012669	-0.005955	-0.004210
31878	10650036	0.115854	-9.759667	-0.025225	-0.009067	0.001535	-0.008091
31879	10650061	0.105680	-9.743725	-0.051526	-0.007720	-0.000042	-0.002013
31880	10650086	0.100762	-9.727608	-0.054887	-0.009672	-0.001109	-0.000988
31881	10650111	0.109676	-9.744390	-0.067369	-0.007753	0.000659	-0.005026
31882	10650136	0.115626	-9.736461	-0.053418	-0.003648	-0.003389	0.000525
31883	10650161	0.108549	-9.751441	-0.040905	-0.001839	-0.003478	0.004752
31884	10650186	0.112555	-9.718007	-0.052469	-0.003633	0.000222	-0.001125
31885	10650211	0.097393	-9.737086	-0.027459	-0.001423	-0.000770	-0.001198
31886	10650236	0.104898	-9.743960	-0.005929	-0.004072	-0.001712	0.003676
31887	10650261	0.103838	-9.753972	-0.034192	-0.000893	0.004795	-0.000012
31888	10650286	0.109198	-9.730174	-0.035219	-0.003868	0.002103	0.003119
31889	10650311	0.122913	-9.721565	-0.028493	-0.000061	-0.001134	0.000142
31890	10650336	0.117946	-9.704643	-0.022289	-0.001867	0.001153	-0.002477
31891	10650361	0.142129	-9.740448	-0.019064	-0.003281	-0.000797	0.000410
31892	10650386	0.103526	-9.742498	-0.009355	-0.009179	0.001808	-0.001164
31893	10650411	0.118890	-9.752244	-0.011313	-0.008050	-0.001596	0.001378
31894	10650436	0.116973	-9.753246	-0.008838	-0.003165	0.004053	0.002994
31895	10650461	0.105098	-9.751580	-0.003594	-0.008038	-0.002512	-0.005744
31896	10650486	0.075865	-9.737140	-0.010565	-0.002302	-0.001566	-0.002480
31897	10650511	0.112059	-9.728460	-0.020804	-0.001337	0.002387	-0.002789
31898	10650536	0.122953	-9.752953	-0.054417	0.000833	-0.001250	0.001930
31899	10650561	0.129577	-9.762341	-0.025243	-0.003715	0.001000	0.000162
31900	10650586	0.116237	-9.764523	-0.017004	-0.001416	0.001170	-0.000095
31901	10650611	0.114081	-9.757972	0.018451	-0.006181	-0.002283	-0.002609
31902	10650636	0.081399	-9.763229	-0.005796	-0.001532	-0.001615	-0.001843
31903	10650661	0.095642	-9.730512	0.007529	-0.004561	-0.004506	0.001931
31904	10650686	0.068879	-9.751816	-0.017247	-0.000644	-0.000556	0.004892
31905	10650711	0.118901	-9.754205	-0.007484	-0.005734	-0.002263	-0.000301
31906	10650736	0.084520	-9.734816	-0.031284	-0.006008	-0.003693	-0.001010
31907	10650761	0.080474	-9.757133	-0.033152	-0.006822	-0.003694	0.005536
31908	10650786	0.098618	-9.753531	-0.037048	-0.004992	-0.005364	-0.000829
31909	10650811	0.089917	-9.750627	-0.015828	0.004564	-0.002225	-0.005259
31910	10650836	0.085429	-9.780777	-0.003460	-0.003529	-0.001326	-0.003058
31911	10650861	0.082599	-9.724848	-0.033201	-0.007428	0.000338	-0.006559
31912	10650886	0.099876	-9.770875	-0.049560	-0.007267	-0.000361	-0.002785
31913	10650911	0.081469	-9.744035	-0.051879	-0.006284	-0.005254	-0.003260
31914	10650936	0.100575	-9.750424	-0.052503	-0.010382	-0.003190	-0.001894
31915	10650961	0.105615	-9.748440	-0.023241	-0.006393	-0.001831	-0.002989
31916	10650986	0.111862	-9.750605	-0.031850	-0.003983	-0.005077	-0.000833
31917	10651011	0.105398	-9.742605	-0.001181	-0.007096	-0.001390	0.000288
31918	10651036	0.101265	-9.744347	-0.015044	-0.004892	-0.000645	-0.002791
31919	10651061	0.081773	-9.749900	-0.008717	-0.003564	0.001834	-0.006180
31920	10651086	0.099512	-9.731394	0.005549	-0.007574	-0.002629	-0.001317
31921	10651111	0.118676	-9.736258	-0.002182	-0.002162	-0.003889	-0.001347
31922	10651136	0.078294	-9.741972	-0.002954	-0.005785	0.003342	-0.005521
31923	10651161	0.103903	-9.751379	-0.049004	0.001313	0.001793	-0.001708
31924	10651186	0.117842	-9.742713	-0.014112	0.002813	-0.001279	-0.000383
31925	10651211	0.118130	-9.727496	-0.017039	-0.002888	0.001208	0.000738
31926	10651236	0.120562	-9.737640	-0.002633	-0.002614	-0.001435	0.001238
31927	10651261	0.105162	-9.743870	-0.042320	0.000715	-0.001442	0.000909
31928	10651286	0.105742	-9.720762	-0.032292	-0.003146	0.001536	0.003047
31929	10651311	0.106646	-9.749627	-0.037574	-0.001922	-0.001359	-0.000560
31930	10651336	0.108410	-9.777777	-0.026111	-0.007002	0.001387	-0.004190
31931	10651361	0.117153	-9.735443	0.005499	-0.002347	0.002578	0.004143
31932	10651386	0.110315	-9.739172	-0.035628	-0.000589	0.001311	-0.000936
31933	10651411	0.114105	-9.776693	-0.029951	-0.007293	-0.001329	0.000092
31934	10651436	0.119064	-9.754894	-0.024263	-0.007254	-0.000881	-0.002852
31935	10651461	0.118785	-9.743243	-0.010305	-0.002657	-0.002015	0.001743
31936	10651486	0.102557	-9.734249	-0.022270	-0.006175	-0.002468	-0.000294
31937	10651511	0.118936	-9.741980	-0.030455	-0.003330	0.000679	-0.002217
31938	10651536	0.109489	-9.752523	-0.031853	-0.005676	0.002256	-0.001493
31939	10651561	0.118026	-9.748679	-0.028540	-0.004508	0.003760	-0.000593
31940	10651586	0.109616	-9.763585	-0.021770	-0.004758	0.001232	-0.003041
31941	10651611	0.110189	-9.767626	-0.036262	-0.008512	0.000845	0.000562
31942	10651636	0.115043	-9.738318	-0.025654	-0.005583	-0.003046	-0.003701
31943	10651661	0.115513	-9.772408	-0.029951	-0.003675	0.001316	-0.002402
31944	10651686	0.106463	-9.754478	0.001240	-0.006145	0.003225	0.000371
31945	10651711	0.102232	-9.713644	-0.005025	-0.008088	-0.000572	-0.001891
31946	10651736	0.097659	-9.759307	-0.031737	-0.003286	-0.002344	0.001815
31947	10651761	0.090418	-9.754908	-0.014449	0.000980	-0.006025	-0.001365
31948	10651786	0.088905	-9.749764	-0.012067	-0.002043	-0.003688	-0.001921
31949	10651811	0.120587	-9.743511	0.008833	-0.003175	-0.002092	0.000203
31950	10651836	0.104921	-9.745961	0.001227	-0.005890	-0.001234	-0.000936
31951	10651861	0.089569	-9.764391	-0.016429	-0.005949	0.000505	-0.000533
31952	10651886	0.103525	-9.701739	-0.006474	-0.007373	-0.003207	-0.003824
31953	10651911	0.094807	-9.731329	-0.002618	-0.011583	0.000596	-0.001484
31954	10651936	0.121260	-9.747910	-0.014208	-0.005995	-0.003885	0.001676
31955	10651961	0.091644	-9.712641	0.013725	-0.006919	-0.003591	-0.005239
31956	10651986	0.126969	-9.745638	-0.002710	-0.003584	-0.001727	-0.006330
31957	10652011	0.122688	-9.743881	-0.027689	-0.010139	-0.000402	-0.000153
31958	10652036	0.105360	-9.729481	-0.021756	-0.003694	0.000355	0.001122
31959	10652061	0.111037	-9.757626	-0.037609	-0.002843	-0.002672	-0.000954
31960	10652086	0.116560	-9.754305	-0.002664	-0.003923	0.001049	-0.004774
31961	10652111	0.116593	-9.749727	-0.022814	-0.007927	-0.003859	-0.003187
31962	10652136	0.113601	-9.753270	-0.010296	-0.003998	0.000103	0.005862
31963	10652161	0.104148	-9.752851	-0.014583	-0.004517	-0.002241	0.000469
31964	10652186	0.115196	-9.733999	-0.059653	-0.001231	-0.000897	-0.001653
31965	10652211	0.102561	-9.733587	-0.034711	-0.005957	-0.003169	0.001235
31966	10652236	0.115508	-9.740133	-0.029949	-0.005041	-0.001279	0.003429
31967	10652261	0.092249	-9.749126	-0.019749	-0.001763	-0.004521	-0.001667
31968	10652286	0.084303	-9.747081	-0.035528	-0.000595	-0.005023	-0.004111
31969	10652311	0.105720	-9.716622	-0.024643	-0.003773	0.000346	-0.003876
31970	10652336	0.105806	-9.731054	-0.011707	-0.005120	-0.003485	-0.002038
31971	10652361	0.125947	-9.741629	-0.017113	-0.005609	-0.001942	0.000148
31972	10652386	0.103398	-9.732569	-0.007430	-0.007786	0.004154	-0.000580
31973	10652411	0.098917	-9.754902	-0.008824	-0.006697	0.000173	0.001575
31974	10652436	0.101097	-9.761665	-0.030340	-0.003727	0.000858	-0.004454
31975	10652461	0.098813	-9.737074	-0.026516	-0.004499	-0.005093	-0.002238
31976	10652486	0.100871	-9.738618	-0.048087	-0.002584	-0.002727	-0.001079
31977	10652511	0.083507	-9.731030	-0.031228	-0.003713	0.001067	-0.000030
31978	10652536	0.107487	-9.747982	-0.019891	-0.006369	-0.002412	-0.000553
31979	10652561	0.104239	-9.751749	-0.024650	-0.005974	-0.004920	-0.001080
31980	10652586	0.111696	-9.746629	-0.012278	-0.008076	0.003313	-0.000840
31981	10652611	0.110882	-9.752214	-0.019867	-0.002985	0.001976	-0.001182
31982	10652636	0.111292	-9.768889	-0.046269	-0.006208	-0.003706	-0.005051
31983	10652661	0.109229	-9.734673	-0.020361	-0.005652	0.001350	-0.000858
31984	10652686	0.120127	-9.734196	-0.012269	-0.005472	-0.000457	-0.001952
31985	10652711	0.118012	-9.752101	-0.021282	-0.002059	-0.001033	0.000209
31986	10652736	0.092551	-9.731076	-0.021189	-0.001483	0.005166	-0.003281
31987	10652761	0.104947	-9.734278	-0.018919	-0.006887	-0.000484	-0.004451
31988	10652786	0.116733	-9.722095	-0.030490	-0.007220	0.002553	-0.001103
31989	10652811	0.124112	-9.736101	-0.039212	-0.010410	-0.001961	0.001314
31990	10652836	0.111753	-9.735716	-0.043347	-0.003481	-0.002615	-0.001012
31991	10652861	0.128744	-9.763222	-0.030075	-0.009388	-0.004213	-0.002353
31992	10652886	0.094235	-9.744512	-0.040961	-0.009575	-0.000077	-0.002462
31993	10652911	0.137351	-9.770875	-0.019133	-0.009954	-0.002415	-0.002600
31994	10652936	0.103437	-9.752051	-0.037061	-0.003630	-0.000505	-0.007795
31995	10652961	0.127012	-9.773838	-0.050645	-0.005810	0.000386	0.000222
31996	10652986	0.115730	-9.752453	-0.031382	-0.002885	-0.005387	-0.000837
31997	10653011	0.089445	-9.755514	-0.007806	-0.006010	0.000367	-0.005226
31998	10653036	0.088162	-9.759521	-0.026019	-0.006628	-0.002348	-0.002219
31999	10653061	0.097204	-9.752989	-0.042799	-0.004224	-0.003211	0.000460
32000	10653086	0.113781	-9.754890	-0.028571	-0.008437	0.002727	0.002363
32001	10653111	0.104919	-9.761524	-0.036632	-0.005583	-0.000912	-0.001831
32002	10653136	0.107795	-9.760422	-0.044277	-0.004481	-0.001083	0.000732
32003	10653161	0.093755	-9.717828	-0.017351	-0.002410	-0.004150	-0.001596
32004	10653186	0.099005	-9.738663	-0.046749	-0.008836	-0.001423	-0.003497
32005	10653211	0.100401	-9.746057	-0.027468	-0.002547	0.000240	-0.001830
32006	10653236	0.106389	-9.740103	-0.008805	-0.003943	-0.002113	-0.001973
32007	10653261	0.122235	-9.745312	-0.027624	-0.005938	-0.003947	0.001039
32008	10653286	0.132648	-9.775555	-0.027182	-0.006446	0.002110	-0.000153
32009	10653311	0.124063	-9.747386	-0.014712	-0.006917	0.001010	0.001392
32010	10653336	0.119024	-9.759908	-0.006512	-0.006735	0.000873	-0.004126
32011	10653361	0.132933	-9.757959	-0.030092	-0.006948	-0.004168	-0.000373
32012	10653386	0.149532	-9.757339	-0.025833	-0.006622	-0.000280	0.001635
32013	10653411	0.121174	-9.728485	-0.042903	-0.001693	-0.002061	0.002064
32014	10653436	0.126118	-9.753942	-0.018535	-0.006641	-0.008227	-0.001742
32015	10653461	0.123474	-9.735548	-0.013692	-0.002216	-0.002012	0.001097
32016	10653486	0.132280	-9.742765	-0.031084	-0.009082	0.000250	-0.003417
32017	10653511	0.124448	-9.732990	-0.024801	-0.012220	-0.001410	0.001003
32018	10653536	0.122439	-9.764946	-0.016161	-0.007908	0.001888	-0.000465
32019	10653561	0.109866	-9.749061	-0.009819	-0.005940	0.000112	-0.001828
32020	10653586	0.126291	-9.760480	-0.025708	-0.005116	-0.003748	-0.003453
32021	10653611	0.141554	-9.762957	-0.037289	-0.006311	-0.003952	0.002706
32022	10653636	0.128297	-9.736465	-0.012296	-0.004815	-0.005361	-0.005321
32023	10653661	0.130216	-9.756102	0.003020	-0.007117	-0.004540	0.005719
32024	10653686	0.119734	-9.753378	0.002152	-0.002621	-0.003108	0.003408
32025	10653711	0.105226	-9.759797	-0.024689	-0.008090	0.000091	0.004150
32026	10653736	0.088863	-9.733723	-0.036619	-0.010194	0.001200	-0.002129
32027	10653761	0.077259	-9.734213	-0.013978	-0.007848	-0.001787	0.001250
32028	10653786	0.110005	-9.757841	-0.025151	-0.006010	-0.001371	0.000539
32029	10653811	0.068318	-9.738577	-0.015842	-0.005862	0.003926	-0.002635
32030	10653836	0.076039	-9.742636	-0.023072	-0.007507	-0.004952	-0.002037
32031	10653861	0.102236	-9.738801	-0.035709	-0.008538	-0.000380	-0.001568
32032	10653886	0.082371	-9.750056	-0.029302	-0.004643	-0.002579	-0.003572
32033	10653911	0.087993	-9.750128	-0.019709	0.000794	0.002047	-0.001892
32034	10653936	0.075270	-9.747193	-0.036460	-0.002223	0.003660	-0.008607
32035	10653961	0.078954	-9.739429	-0.043609	0.002125	-0.003874	-0.001545
32036	10653986	0.113593	-9.765601	0.020834	-0.005545	0.000197	0.002277
32037	10654011	0.079656	-9.729356	-0.019687	-0.001021	0.004724	-0.003415
32038	10654036	0.129456	-9.759688	-0.012808	-0.005639	0.003228	-0.000273
32039	10654061	0.119315	-9.745151	-0.009876	-0.006579	0.000295	-0.001635
32040	10654086	0.123829	-9.754729	-0.030961	-0.004458	-0.002050	-0.000753
32041	10654111	0.114171	-9.752750	-0.013178	-0.002863	-0.004159	-0.001408
32042	10654136	0.119201	-9.734583	-0.018574	-0.009079	-0.001681	-0.001121
32043	10654161	0.108858	-9.749673	-0.001147	-0.004008	-0.000176	-0.003245
32044	10654186	0.111907	-9.727746	-0.005473	-0.002214	-0.004336	-0.001217
32045	10654211	0.116153	-9.761810	-0.008904	-0.005342	0.001745	-0.002268
32046	10654236	0.124823	-9.766965	-0.006059	-0.006476	-0.001386	-0.004332
32047	10654261	0.122832	-9.745616	-0.038657	-0.005512	-0.001109	-0.001898
32048	10654286	0.117716	-9.725446	-0.027546	-0.002085	-0.000073	-0.001839
32049	10654311	0.124956	-9.737349	-0.018499	-0.003573	-0.001453	0.001432
32050	10654336	0.123848	-9.743033	-0.051565	-0.001746	-0.000976	-0.004731
32051	10654361	0.113176	-9.730369	-0.051033	-0.003190	0.002491	-0.002143
32052	10654386	0.134262	-9.753963	-0.010910	-0.004968	-0.000720	-0.006704
32053	10654411	0.124847	-9.726297	-0.028076	-0.002994	-0.001633	0.001748
32054	10654436	0.142194	-9.768150	-0.038734	-0.004482	-0.001478	-0.002740
32055	10654461	0.092527	-9.729088	-0.026902	0.001365	0.002374	-0.001317
32056	10654486	0.098862	-9.726172	-0.057105	0.003316	-0.003082	-0.001542
32057	10654511	0.103636	-9.742719	-0.026011	0.001758	-0.004333	0.000180
32058	10654536	0.085959	-9.750962	0.002820	-0.001721	0.002651	-0.001368
32059	10654561	0.106563	-9.741066	-0.038497	-0.001425	0.001161	-0.003497
32060	10654586	0.114529	-9.741376	-0.011687	0.000821	-0.003187	-0.003141
32061	10654611	0.102880	-9.762394	-0.012639	-0.006175	-0.004540	-0.001335
32062	10654636	0.104881	-9.740788	0.004125	-0.002667	-0.002022	-0.001271
32063	10654661	0.113155	-9.744042	-0.025140	-0.002161	0.000256	0.001176
32064	10654686	0.112547	-9.730882	-0.017519	-0.006467	0.002751	-0.002001
32065	10654711	0.091250	-9.744835	-0.021668	-0.001505	-0.002323	-0.001271
32066	10654736	0.090526	-9.762424	-0.020249	-0.003712	0.000674	-0.000674
32067	10654761	0.090386	-9.745640	-0.032217	-0.004917	-0.001477	0.001174
32068	10654786	0.107568	-9.732381	-0.047700	-0.007300	0.002405	-0.008288
32069	10654811	0.101759	-9.741640	-0.036122	-0.002758	0.000885	-0.001314
32070	10654836	0.110616	-9.740103	-0.005085	-0.011541	-0.000501	0.000170
32071	10654861	0.092011	-9.729272	-0.015483	-0.005274	-0.000522	-0.001699
32072	10654886	0.113572	-9.777802	-0.019859	-0.003813	-0.002427	-0.002484
32073	10654911	0.106042	-9.744108	-0.026550	-0.004250	0.001633	0.000039
32074	10654936	0.126827	-9.775770	-0.017509	0.001565	-0.000073	0.000976
32075	10654961	0.104196	-9.743494	-0.037088	-0.003798	0.003579	-0.001237
32076	10654986	0.104648	-9.710068	-0.020325	-0.003967	0.002861	-0.000980
32077	10655011	0.110550	-9.742644	-0.056316	-0.005440	-0.001629	-0.005940
32078	10655036	0.108851	-9.743685	-0.020318	-0.002186	0.001350	0.001189
32079	10655061	0.100627	-9.743100	-0.003057	-0.004384	0.002089	0.000623
32080	10655086	0.118503	-9.751188	-0.019049	-0.012404	-0.001806	-0.002335
32081	10655111	0.105436	-9.743446	-0.007871	-0.007272	0.004295	-0.001031
32082	10655136	0.110817	-9.739254	-0.029968	-0.005284	-0.004657	-0.004421
32083	10655161	0.122622	-9.739809	-0.015165	-0.006916	-0.001520	-0.005037
32084	10655186	0.116716	-9.755718	-0.033818	-0.004296	-0.003146	-0.000180
32085	10655211	0.116429	-9.736949	-0.020863	-0.004926	-0.003554	-0.002362
32086	10655236	0.106311	-9.752316	-0.048133	-0.006178	-0.002407	-0.001962
32087	10655261	0.091617	-9.738320	-0.013523	-0.002114	-0.005500	-0.002633
32088	10655286	0.113009	-9.735267	-0.009331	-0.001319	-0.002193	-0.002876
32089	10655311	0.112726	-9.752262	-0.015613	-0.008434	0.000469	0.000168
32090	10655336	0.102414	-9.747426	-0.029842	-0.001608	-0.001563	-0.007869
32091	10655361	0.110069	-9.756319	-0.030856	-0.000684	-0.000177	-0.003311
32092	10655386	0.102255	-9.744125	-0.028486	-0.004707	0.001949	-0.002073
32093	10655411	0.101106	-9.729892	-0.028970	-0.005484	0.000322	0.000294
32094	10655436	0.090836	-9.740381	-0.034158	-0.004542	-0.003740	-0.003386
32095	10655461	0.114775	-9.748518	-0.041464	-0.005218	-0.002129	0.000468
32096	10655486	0.098793	-9.776257	-0.009219	-0.002383	0.000751	-0.005546
32097	10655511	0.089525	-9.755182	-0.029438	-0.008550	0.002076	0.000055
32098	10655536	0.090722	-9.736774	-0.022681	-0.006372	-0.004546	-0.003834
32099	10655561	0.099013	-9.760589	-0.009255	-0.003640	0.002548	-0.002329
32100	10655586	0.120068	-9.762489	-0.023219	-0.001043	-0.005028	-0.001992
32101	10655611	0.130802	-9.743391	-0.021901	-0.003004	-0.001577	-0.002937
32102	10655636	0.117197	-9.762155	-0.016025	-0.001815	-0.002982	-0.003262
32103	10655661	0.123273	-9.749208	-0.020470	-0.008145	-0.001094	-0.003879
32104	10655686	0.121478	-9.768515	-0.000315	-0.008495	-0.002329	-0.006004
32105	10655711	0.102811	-9.731482	0.013647	-0.008173	-0.001994	-0.003624
32106	10655736	0.119383	-9.738199	-0.030032	-0.005773	0.000824	-0.003938
32107	10655761	0.119329	-9.741328	-0.011368	-0.009079	-0.002080	-0.006640
32108	10655786	0.128018	-9.744798	-0.025825	-0.010163	-0.001965	-0.003624
32109	10655811	0.130821	-9.740994	-0.023799	-0.004876	0.002906	-0.005665
32110	10655836	0.117252	-9.755198	-0.037152	-0.004922	0.002196	-0.005022
32111	10655861	0.119578	-9.752147	-0.048276	-0.009111	-0.000644	-0.000471
32112	10655886	0.137009	-9.738851	-0.035378	-0.005473	-0.002202	0.000401
32113	10655911	0.116307	-9.759977	-0.035309	-0.011919	-0.001021	-0.002715
32114	10655936	0.131460	-9.749661	-0.046367	-0.006554	-0.004733	0.000393
32115	10655961	0.086846	-9.730601	-0.026011	-0.004879	-0.000897	-0.002536
32116	10655986	0.100582	-9.729105	-0.018874	-0.003064	0.000358	-0.002152
32117	10656011	0.113888	-9.755890	-0.025599	-0.002839	-0.003001	-0.005184
32118	10656036	0.095617	-9.734373	-0.051475	-0.006358	-0.002733	-0.001454
32119	10656061	0.082137	-9.734482	-0.024540	-0.005898	-0.001115	-0.003500
32120	10656086	0.108597	-9.756504	-0.020819	-0.004567	-0.002965	-0.005050
32121	10656111	0.129209	-9.764653	-0.029109	-0.005785	-0.000724	-0.001384
32122	10656136	0.096978	-9.740442	-0.025555	-0.005502	0.000577	-0.001498
32123	10656161	0.098291	-9.732424	-0.021247	-0.003348	-0.001009	-0.004274
32124	10656186	0.076109	-9.751105	-0.027849	-0.004470	0.000411	0.000738
32125	10656211	0.102241	-9.739344	-0.031355	-0.006698	-0.004359	-0.004219
32126	10656236	0.109865	-9.750909	-0.013161	-0.006814	-0.002614	-0.002028
32127	10656261	0.081469	-9.730035	-0.004881	-0.003126	-0.005840	-0.002250
32128	10656286	0.103092	-9.736083	-0.026607	-0.009046	-0.000975	-0.003932
32129	10656311	0.090670	-9.734516	-0.014967	-0.002447	-0.003316	-0.005382
32130	10656336	0.100765	-9.749103	-0.014084	-0.004859	-0.001216	0.002077
32131	10656361	0.096796	-9.738344	-0.007818	-0.003111	0.000107	-0.000672
32132	10656386	0.105834	-9.761209	-0.025639	-0.009125	-0.002205	-0.001960
32133	10656411	0.123799	-9.751815	-0.034711	0.001830	-0.000657	-0.001977
32134	10656436	0.110069	-9.753428	-0.034741	-0.006486	-0.000934	-0.003046
32135	10656461	0.085744	-9.754640	-0.036525	-0.003362	-0.002417	-0.000112
32136	10656486	0.123914	-9.759291	-0.042900	-0.000094	-0.001965	0.003339
32137	10656511	0.119606	-9.769654	-0.019849	0.002643	0.000659	0.002320
32138	10656536	0.110976	-9.758770	-0.025616	-0.005774	-0.000978	-0.001380
32139	10656561	0.093811	-9.719199	-0.020776	-0.005515	-0.002913	-0.001200
32140	10656586	0.087612	-9.712416	-0.035087	-0.003569	-0.001840	-0.000942
32141	10656611	0.122661	-9.749331	-0.012252	-0.001375	0.002207	0.002916
32142	10656636	0.134794	-9.755593	-0.027179	-0.005305	-0.001620	-0.001134
32143	10656661	0.125025	-9.737611	-0.032415	-0.004473	-0.001530	0.001049
32144	10656686	0.123986	-9.766126	-0.030489	-0.004388	-0.004120	0.000390
32145	10656711	0.088906	-9.702460	-0.033224	-0.006868	-0.000936	-0.003424
32146	10656736	0.088147	-9.715848	-0.027911	-0.003374	-0.000039	-0.005808
32147	10656761	0.106746	-9.733497	-0.006028	-0.009903	0.002243	-0.002956
32148	10656786	0.086313	-9.734106	-0.014039	-0.007422	0.000741	-0.000465
32149	10656811	0.114120	-9.745455	-0.024667	-0.003251	-0.001639	0.000916
32150	10656836	0.122902	-9.759176	-0.020428	-0.005455	0.001091	-0.001821
32151	10656861	0.099470	-9.742020	-0.044309	-0.007032	-0.003710	-0.000559
32152	10656886	0.091782	-9.748507	-0.029374	-0.006661	0.001274	0.002356
32153	10656911	0.078667	-9.730350	-0.017270	0.000121	0.001262	-0.000036
32154	10656936	0.114729	-9.755892	-0.024251	-0.007968	-0.000301	0.000420
32155	10656961	0.127047	-9.752213	-0.006985	-0.002906	-0.000678	-0.003637
32156	10656986	0.119847	-9.746403	-0.020328	0.000635	-0.001125	-0.001210
32157	10657011	0.095530	-9.736574	-0.031828	-0.007311	0.001189	-0.002523
32158	10657036	0.094093	-9.733641	-0.037996	-0.002871	0.002496	-0.002971
32159	10657061	0.090860	-9.719867	-0.010622	-0.000510	0.000791	-0.000423
32160	10657086	0.089988	-9.733295	-0.001573	-0.007543	-0.003330	0.002331
32161	10657111	0.081600	-9.744758	-0.003925	-0.004767	0.000209	0.002412
32162	10657136	0.063641	-9.740889	-0.022964	-0.000910	-0.003028	-0.003967
32163	10657161	0.089319	-9.754676	-0.000170	-0.008696	0.000657	0.000174
32164	10657186	0.102295	-9.755289	-0.011612	-0.000949	-0.005805	-0.001289
32165	10657211	0.103207	-9.736465	-0.032347	-0.007805	-0.001864	-0.006446
32166	10657236	0.085659	-9.746670	-0.030820	-0.008999	-0.000326	-0.003481
32167	10657261	0.104343	-9.744857	-0.040908	-0.004403	-0.004131	-0.005376
32168	10657286	0.123264	-9.741841	-0.037176	-0.003427	-0.002429	-0.004475
32169	10657311	0.071962	-9.726524	-0.024418	-0.001618	-0.000249	0.001436
32170	10657336	0.106563	-9.741728	-0.026484	0.000675	-0.000487	-0.004473
32171	10657361	0.117834	-9.738869	-0.017974	-0.002299	-0.003371	0.001158
32172	10657386	0.097331	-9.737164	-0.022212	-0.004996	-0.005159	0.001352
32173	10657411	0.088768	-9.733957	-0.021631	-0.000501	-0.001797	-0.002423
32174	10657436	0.090761	-9.737216	-0.024129	-0.005864	-0.004345	-0.003710
32175	10657461	0.083439	-9.726847	-0.025477	-0.003529	0.001131	-0.000413
32176	10657486	0.095399	-9.729563	-0.024058	-0.000338	0.001307	-0.003503
32177	10657511	0.104822	-9.755914	-0.031281	-0.000191	-0.005731	-0.003728
32178	10657536	0.084430	-9.734154	-0.013000	-0.000700	-0.005797	-0.002961
32179	10657561	0.100715	-9.736670	-0.020702	0.002649	0.000079	-0.001265
32180	10657586	0.121835	-9.751058	-0.024180	-0.001125	-0.002190	-0.001594
32181	10657611	0.110049	-9.762698	-0.017399	0.002904	0.000016	-0.002490
32182	10657636	0.093512	-9.743791	0.004674	-0.003360	-0.002620	-0.003833
32183	10657661	0.102140	-9.736138	-0.023722	-0.006333	0.000565	-0.001754
32184	10657686	0.104464	-9.735602	-0.025630	-0.007585	0.000030	0.001197
32185	10657711	0.125638	-9.740646	-0.050648	-0.003754	0.000225	0.003040
32186	10657736	0.119950	-9.740856	-0.042041	-0.009589	-0.003956	-0.003248
32187	10657761	0.111242	-9.743391	-0.006981	-0.007585	-0.004962	-0.007425
32188	10657786	0.105878	-9.735823	-0.010282	-0.006838	-0.001842	-0.002284
32189	10657811	0.146395	-9.772611	-0.022475	-0.006180	-0.004539	-0.001213
32190	10657836	0.108316	-9.731704	-0.029459	-0.004286	0.002728	-0.001816
32191	10657861	0.139295	-9.745817	-0.011345	-0.001520	-0.002135	-0.003131
32192	10657886	0.116228	-9.773737	-0.003604	-0.003393	0.005274	0.002238
32193	10657911	0.103543	-9.739142	-0.011703	-0.005044	0.002457	-0.000662
32194	10657936	0.106469	-9.751576	-0.003144	-0.011347	-0.002496	0.001572
32195	10657961	0.108483	-9.743552	-0.029958	-0.006105	-0.002995	-0.005752
32196	10657986	0.126672	-9.712326	-0.040612	-0.006266	0.000635	0.000483
32197	10658011	0.104137	-9.742725	-0.025634	-0.007790	0.004219	-0.000323
32198	10658036	0.109785	-9.760764	-0.051071	-0.009339	0.000049	-0.005600
32199	10658061	0.113039	-9.726898	-0.029449	-0.001600	-0.005628	-0.003664
32200	10658086	0.119857	-9.749022	-0.004220	-0.010499	-0.001849	-0.007980
32201	10658111	0.086847	-9.732491	-0.026494	-0.006327	-0.005767	-0.001854
32202	10658136	0.097326	-9.732782	-0.029945	-0.009064	0.000390	0.002295
32203	10658161	0.115580	-9.753675	-0.013164	-0.002505	-0.004917	0.002183
32204	10658186	0.091602	-9.735398	-0.018345	-0.005047	-0.006071	-0.003268
32205	10658211	0.103633	-9.746729	-0.012177	-0.005607	-0.002337	-0.003377
32206	10658236	0.089476	-9.716421	-0.020308	-0.007148	0.000097	-0.002590
32207	10658261	0.053964	-9.729928	-0.033971	-0.005502	0.000969	0.001329
32208	10658286	0.103206	-9.741293	-0.026620	-0.009847	0.002107	-0.005904
32209	10658311	0.079936	-9.742901	-0.033712	-0.011235	-0.000437	-0.005403
32210	10658336	0.096606	-9.744936	-0.041848	-0.006801	-0.002801	0.000538
32211	10658361	0.112381	-9.764213	-0.009794	-0.001298	0.003491	-0.001819
32212	10658386	0.093968	-9.765254	-0.018885	-0.009117	-0.003049	-0.005680
32213	10658411	0.089896	-9.741406	-0.030338	-0.007044	-0.001527	-0.006384
32214	10658436	0.086827	-9.736574	-0.007285	-0.004214	-0.001536	-0.002737
32215	10658461	0.103264	-9.751278	-0.025598	-0.005831	0.005159	0.000064
32216	10658486	0.111665	-9.770666	-0.022797	-0.006932	-0.005013	-0.003515
32217	10658511	0.098021	-9.753542	-0.006011	-0.011832	0.000073	-0.004949
32218	10658536	0.111955	-9.759723	-0.024640	-0.004070	-0.006701	-0.003918
32219	10658561	0.080222	-9.735088	-0.016891	-0.005573	-0.003500	-0.004919
32220	10658586	0.080490	-9.717327	-0.030270	-0.004508	-0.002705	-0.002225
32221	10658611	0.104860	-9.729023	-0.020767	-0.002943	-0.000791	0.003293
32222	10658636	0.128124	-9.729778	-0.014713	-0.004023	0.000677	0.001055
32223	10658661	0.117030	-9.725876	0.000704	-0.005320	-0.002639	0.004314
32224	10658686	0.098076	-9.751241	-0.031762	-0.002135	-0.002788	-0.003067
32225	10658711	0.092080	-9.735340	-0.021720	-0.007141	0.001907	-0.002062
32226	10658736	0.120041	-9.719753	-0.025777	-0.011474	0.001311	0.000121
32227	10658761	0.115567	-9.738688	-0.031895	-0.005154	-0.002457	-0.003186
32228	10658786	0.120751	-9.729880	-0.045296	-0.002295	-0.001563	-0.001140
32229	10658811	0.122399	-9.758579	-0.027656	-0.006582	0.000496	0.000939
32230	10658836	0.094961	-9.740228	-0.009711	-0.006698	0.002035	-0.002651
32231	10658861	0.124684	-9.750014	-0.028104	-0.005317	-0.005101	0.001802
32232	10658886	0.131518	-9.757034	-0.029506	-0.002414	-0.006227	-0.003214
32233	10658911	0.111445	-9.758282	-0.026115	-0.004725	-0.001860	-0.001068
32234	10658936	0.119555	-9.752792	-0.037641	-0.002408	-0.004086	-0.000255
32235	10658961	0.109365	-9.749478	-0.014153	-0.006886	-0.006357	0.000131
32236	10658986	0.104886	-9.733862	-0.014576	-0.007470	0.000289	0.001256
32237	10659011	0.124491	-9.742701	-0.010374	-0.006165	-0.004987	-0.000761
32238	10659036	0.114394	-9.733784	-0.012192	-0.002077	-0.000267	-0.000045
32239	10659061	0.118192	-9.730911	-0.010770	-0.000444	-0.001597	-0.002047
32240	10659086	0.110523	-9.722191	-0.028988	-0.005026	0.002079	0.000814
32241	10659111	0.103759	-9.754610	-0.024664	-0.006758	-0.006287	0.001480
32242	10659136	0.121935	-9.759533	-0.028568	-0.004852	0.000404	0.000671
32243	10659161	0.094416	-9.775347	-0.010205	-0.005434	0.002648	-0.002517
32244	10659186	0.100198	-9.772499	-0.035641	-0.006269	0.001156	0.004274
32245	10659211	0.100044	-9.756093	-0.023656	-0.006543	-0.000937	-0.003305
32246	10659236	0.101854	-9.751402	-0.018401	-0.003433	-0.002366	-0.004220
32247	10659261	0.089445	-9.750504	-0.024549	-0.004564	0.001438	-0.000343
32248	10659286	0.083922	-9.760062	-0.025472	-0.003317	0.000155	-0.005808
32249	10659311	0.098704	-9.729057	-0.023632	-0.002447	0.003345	-0.001177
32250	10659336	0.113740	-9.745794	-0.034232	-0.001502	-0.000194	0.000407
32251	10659361	0.103338	-9.752125	-0.031328	-0.003403	-0.000876	-0.000554
32252	10659386	0.073551	-9.738475	-0.017777	-0.004281	-0.001732	-0.002666
32253	10659411	0.071663	-9.741312	-0.020112	-0.000767	-0.005212	0.001922
32254	10659436	0.104539	-9.730212	-0.036567	-0.000647	-0.005484	-0.004110
32255	10659461	0.108031	-9.754223	-0.015028	-0.000994	-0.004515	-0.001356
32256	10659486	0.088310	-9.735817	-0.025037	-0.004496	-0.002889	-0.000495
32257	10659511	0.101893	-9.734619	0.001255	-0.005205	-0.004512	0.002255
32258	10659536	0.111724	-9.747082	-0.013632	-0.003177	-0.002226	-0.001012
32259	10659561	0.102966	-9.729157	-0.014191	-0.008991	-0.002983	-0.005612
32260	10659586	0.111849	-9.743804	-0.041877	-0.001600	-0.005296	0.000188
32261	10659611	0.092916	-9.755593	-0.030802	-0.004072	-0.002180	-0.003123
32262	10659636	0.113712	-9.747249	-0.031850	-0.005057	0.001110	0.000809
32263	10659661	0.123790	-9.751976	-0.025229	-0.004843	0.001942	-0.001818
32264	10659686	0.112620	-9.744646	-0.017022	-0.004864	0.000983	0.003304
32265	10659711	0.119097	-9.754316	-0.031434	-0.003561	-0.002494	-0.004216
32266	10659736	0.117305	-9.732133	-0.025190	-0.004916	-0.003737	-0.000116
32267	10659761	0.110632	-9.733593	-0.028014	-0.006129	0.002573	0.002231
32268	10659786	0.114834	-9.762544	-0.024204	-0.004320	-0.002313	-0.000237
32269	10659811	0.133203	-9.753996	-0.009425	-0.004163	-0.003207	-0.000696
32270	10659836	0.119235	-9.725285	-0.036703	-0.005558	-0.001560	-0.000101
32271	10659861	0.096248	-9.723989	-0.015957	-0.003970	0.002728	-0.003862
32272	10659886	0.097162	-9.753130	-0.033235	-0.004873	0.000778	-0.003672
32273	10659911	0.102125	-9.740025	-0.017441	-0.003254	0.002553	0.000305
32274	10659936	0.097782	-9.731447	-0.023606	-0.001602	0.000644	-0.001504
32275	10659961	0.097526	-9.751469	-0.017432	-0.004767	-0.002512	-0.001258
32276	10659986	0.102748	-9.746540	-0.025050	-0.001580	-0.003810	0.000653
32277	10660011	0.088288	-9.734792	-0.029322	-0.001538	-0.003418	0.000656
32278	10660036	0.082236	-9.752184	-0.013961	-0.002277	-0.000206	-0.001445
32279	10660061	0.097030	-9.715621	-0.004532	-0.009178	0.001279	-0.003915
32280	10660086	0.111762	-9.748358	-0.023244	-0.005774	-0.000975	-0.000608
32281	10660111	0.100344	-9.753400	-0.012604	-0.000420	0.002155	0.001001
32282	10660136	0.100887	-9.750259	-0.031886	-0.009173	-0.002909	0.000229
32283	10660161	0.115126	-9.749311	-0.020355	-0.003165	-0.002681	-0.001197
32284	10660186	0.102968	-9.719742	-0.039961	-0.002044	-0.001301	0.000924
32285	10660211	0.085208	-9.733831	-0.001038	-0.002453	-0.002591	0.002332
32286	10660236	0.144475	-9.774584	-0.018591	-0.004853	-0.003484	0.001490
32287	10660261	0.116880	-9.745783	-0.001172	-0.001308	-0.004458	-0.001022
32288	10660286	0.113096	-9.729217	-0.033318	-0.006743	-0.004941	-0.003766
32289	10660311	0.106310	-9.736359	-0.005462	-0.004755	0.001363	-0.001433
32290	10660336	0.107133	-9.722023	-0.011698	-0.001089	-0.003675	-0.002946
32291	10660361	0.115957	-9.735870	-0.029987	-0.006109	-0.000273	0.001127
32292	10660386	0.128989	-9.757857	-0.008909	-0.002062	-0.003114	-0.002615
32293	10660411	0.112941	-9.725552	-0.024245	-0.007716	-0.002566	-0.002787
32294	10660436	0.099605	-9.722775	-0.030373	-0.005086	0.001813	-0.000975
32295	10660461	0.127253	-9.733605	-0.013773	-0.006308	-0.000276	-0.000857
32296	10660486	0.093336	-9.755270	-0.020754	-0.004670	0.002654	-0.003476
32297	10660511	0.087714	-9.726328	-0.025492	-0.003828	-0.005981	-0.001982
32298	10660536	0.089852	-9.737150	-0.029788	-0.000839	-0.003359	-0.004353
32299	10660561	0.117431	-9.740631	-0.027093	-0.003549	0.001642	-0.002845
32300	10660586	0.114588	-9.731005	-0.038639	-0.007801	0.004406	-0.002111
32301	10660611	0.129896	-9.742765	-0.032916	-0.003654	-0.007796	-0.003919
32302	10660636	0.132310	-9.746845	-0.043461	-0.005309	0.003175	0.004926
32303	10660661	0.090976	-9.756748	-0.018852	-0.006101	0.001073	-0.004956
32304	10660686	0.103530	-9.727365	-0.037529	-0.002280	-0.002080	-0.000364
32305	10660711	0.095034	-9.737503	-0.032679	-0.000872	-0.000249	-0.000736
32306	10660736	0.095027	-9.741079	-0.015898	0.000396	0.002167	-0.001699
32307	10660761	0.103397	-9.750551	-0.041868	-0.002287	0.002179	-0.002718
32308	10660786	0.106849	-9.732181	-0.029934	-0.004676	-0.000958	0.001381
32309	10660811	0.091062	-9.732692	-0.009204	-0.004192	-0.000700	-0.004576
32310	10660836	0.112283	-9.755701	-0.007893	-0.001280	0.000587	-0.002208
32311	10660861	0.108832	-9.742920	-0.008782	-0.000070	-0.003408	-0.003903
32312	10660886	0.112983	-9.737359	0.003120	-0.001587	0.000125	-0.004523
32313	10660911	0.128112	-9.756236	-0.022355	-0.004238	-0.003350	-0.005306
32314	10660936	0.105800	-9.772884	-0.005850	0.001110	0.000247	0.001882
32315	10660961	0.100744	-9.744145	-0.028505	-0.006229	0.001864	0.003648
32316	10660986	0.116111	-9.763330	-0.002194	-0.006296	-0.006798	-0.000060
32317	10661011	0.142223	-9.761864	0.015988	-0.000937	0.004138	-0.001241
32318	10661036	0.096865	-9.749472	0.007034	-0.003356	-0.002487	-0.000298
32319	10661061	0.095135	-9.711210	-0.014044	-0.005969	0.001010	-0.004187
32320	10661086	0.090625	-9.745234	0.004219	-0.000072	0.003259	-0.000589
32321	10661111	0.107972	-9.745550	-0.024174	-0.003599	0.001191	-0.002143
32322	10661136	0.113878	-9.764133	-0.013623	-0.003794	-0.001083	-0.003561
32323	10661161	0.106071	-9.741693	-0.028982	-0.003736	-0.002888	-0.003122
32324	10661186	0.088458	-9.751706	-0.009167	-0.002629	-0.003582	-0.004601
32325	10661211	0.132785	-9.753983	-0.010391	-0.004461	-0.002125	-0.002861
32326	10661236	0.104826	-9.760330	-0.022294	-0.006461	0.002299	-0.004624
32327	10661261	0.129331	-9.748469	-0.001750	-0.004250	-0.002833	-0.003698
32328	10661286	0.108331	-9.739993	-0.014593	-0.005938	-0.001891	-0.003175
32329	10661311	0.123520	-9.734969	-0.020426	-0.002426	0.000237	-0.003235
32330	10661336	0.110115	-9.727524	-0.021767	-0.002632	-0.003318	-0.003259
32331	10661361	0.141442	-9.752457	-0.040667	-0.007725	-0.001849	0.001957
32332	10661386	0.111498	-9.752310	-0.044304	-0.003117	-0.003903	0.000653
32333	10661411	0.090090	-9.761434	-0.023613	-0.004488	-0.005615	-0.003326
32334	10661436	0.103305	-9.756077	-0.021817	-0.007412	0.000414	-0.000919
32335	10661461	0.120455	-9.759265	-0.016116	-0.005071	-0.000641	0.001703
32336	10661486	0.100786	-9.730740	-0.036660	-0.008202	-0.001751	-0.009324
32337	10661511	0.102676	-9.729181	-0.043830	-0.005013	-0.000972	-0.003488
32338	10661536	0.112663	-9.727489	-0.053010	-0.007968	-0.002502	-0.000928
32339	10661561	0.106537	-9.769381	-0.049070	-0.003502	-0.004111	-0.001977
32340	10661586	0.124650	-9.743956	-0.021457	-0.008678	-0.006986	-0.007297
32341	10661611	0.107498	-9.747582	-0.015591	-0.009942	-0.002739	-0.001504
32342	10661636	0.098466	-9.743953	-0.042766	-0.002170	-0.003557	0.001748
32343	10661661	0.101235	-9.746212	-0.016951	-0.003627	-0.002037	0.000153
32344	10661686	0.123599	-9.752922	0.005938	-0.005056	-0.001487	-0.002791
32345	10661711	0.119639	-9.765981	-0.012754	-0.004825	-0.001168	-0.006634
32346	10661736	0.092716	-9.713674	-0.011228	-0.008073	0.003111	-0.000511
32347	10661761	0.102225	-9.744114	-0.029478	-0.008892	-0.005746	0.000340
32348	10661786	0.100555	-9.758894	-0.026099	-0.008242	-0.000128	-0.005214
32349	10661811	0.117746	-9.747380	0.011687	-0.006709	0.002560	0.001848
32350	10661836	0.102698	-9.737919	-0.030841	-0.005181	-0.003821	-0.003633
32351	10661861	0.101120	-9.745667	0.009422	-0.002223	-0.004283	-0.004418
32352	10661886	0.113908	-9.763545	-0.021795	-0.004479	-0.003608	-0.002612
32353	10661911	0.106082	-9.742141	-0.031415	-0.007701	-0.000565	-0.000659
32354	10661936	0.105748	-9.743738	-0.051475	-0.004175	0.000986	-0.002073
32355	10661961	0.113359	-9.716250	-0.042381	0.000186	-0.000870	0.003804
32356	10661986	0.093792	-9.752864	-0.022125	0.000028	-0.000171	-0.002858
32357	10662011	0.101070	-9.733868	-0.017445	-0.005053	-0.003481	0.000535
32358	10662036	0.087784	-9.732038	-0.024141	-0.009806	-0.005183	-0.000679
32359	10662061	0.107132	-9.758596	-0.009270	-0.003484	0.001377	-0.004320
32360	10662086	0.118554	-9.751451	-0.032411	-0.005564	0.002582	-0.000013
32361	10662111	0.096173	-9.751713	-0.033659	-0.003919	-0.001077	-0.001502
32362	10662136	0.096537	-9.749550	-0.019372	-0.005651	-0.000526	0.001891
32363	10662161	0.101225	-9.745405	-0.007308	0.000943	0.001071	-0.003368
32364	10662186	0.115911	-9.769694	-0.020890	-0.006278	0.000426	-0.004312
32365	10662211	0.102158	-9.740829	-0.026557	-0.005527	0.001679	0.001395
32366	10662236	0.116018	-9.776746	-0.025207	-0.006337	-0.001644	-0.004524
32367	10662261	0.113838	-9.783000	-0.051475	-0.001705	-0.000131	0.000025
32368	10662286	0.094887	-9.738445	-0.002029	-0.001062	-0.000316	-0.002800
32369	10662311	0.099007	-9.756666	-0.018410	-0.007777	0.001830	-0.001352
32370	10662336	0.107884	-9.777467	-0.015577	-0.009096	-0.001240	-0.003165
32371	10662361	0.098616	-9.763400	-0.012153	-0.005560	-0.004017	-0.004147
32372	10662386	0.109175	-9.733814	-0.014567	-0.003357	-0.004619	-0.001593
32373	10662411	0.112975	-9.717868	-0.030512	-0.009754	-0.005260	-0.005682
32374	10662436	0.104602	-9.738344	-0.032338	-0.009137	-0.001881	-0.002530
32375	10662461	0.076220	-9.717828	-0.031720	-0.006761	-0.004290	-0.001386
32376	10662486	0.112842	-9.750429	-0.011354	-0.010943	-0.002122	-0.009707
32377	10662511	0.125800	-9.757124	-0.028117	-0.006615	-0.003003	-0.004338
32378	10662536	0.104674	-9.746502	-0.026059	-0.005367	0.000250	-0.004514
32379	10662561	0.094739	-9.750324	-0.032779	-0.007360	-0.005597	-0.001137
32380	10662586	0.101281	-9.708607	-0.024691	-0.007471	-0.001653	0.001450
32381	10662611	0.086451	-9.730387	-0.039862	-0.002617	0.000496	0.000483
32382	10662636	0.107709	-9.725553	-0.028480	-0.003441	-0.003646	0.001554
32383	10662661	0.106140	-9.750430	-0.015977	-0.002821	0.000349	-0.005929
32384	10662686	0.112663	-9.776651	-0.033372	-0.007805	0.000794	0.002041
32385	10662711	0.104061	-9.733641	-0.030414	-0.006048	0.001530	-0.002576
32386	10662736	0.106800	-9.730965	-0.016534	-0.006077	-0.001439	-0.002725
32387	10662761	0.120050	-9.761435	-0.030012	-0.007176	0.003330	0.000253
32388	10662786	0.095431	-9.741724	-0.004481	-0.006498	-0.004356	-0.001390
32389	10662811	0.128614	-9.750319	-0.036745	-0.004807	-0.001161	-0.002150
32390	10662836	0.107123	-9.754002	-0.030345	-0.000951	-0.003795	0.000398
32391	10662861	0.089681	-9.731520	-0.025070	-0.005402	-0.000323	-0.000991
32392	10662886	0.122350	-9.745667	-0.035225	0.000238	0.005260	-0.003159
32393	10662911	0.132721	-9.755540	-0.001790	-0.005215	-0.000519	-0.001436
32394	10662936	0.107647	-9.752605	-0.028473	-0.002684	0.000162	-0.006381
32395	10662961	0.084099	-9.750784	-0.011130	-0.005439	-0.001422	-0.000864
32396	10662986	0.074464	-9.741458	-0.070125	-0.011498	-0.000446	-0.006102
32397	10663011	0.104135	-9.742618	-0.032268	-0.002867	0.002629	-0.000469
32398	10663036	0.128396	-9.750265	-0.009421	-0.006281	0.001146	0.001395
32399	10663061	0.127143	-9.758033	-0.030032	-0.005242	-0.001092	0.003177
32400	10663086	0.103981	-9.764473	-0.030419	-0.008652	-0.001162	-0.002970
32401	10663111	0.111660	-9.736053	-0.021328	-0.007139	-0.002497	-0.004524
32402	10663136	0.112787	-9.761847	-0.008362	-0.002661	-0.001954	0.002074
32403	10663161	0.103439	-9.739091	-0.016025	-0.006004	-0.001423	0.003883
32404	10663186	0.108043	-9.720729	-0.001603	-0.003366	-0.004569	-0.005053
32405	10663211	0.107955	-9.764708	0.019430	-0.005175	-0.001618	-0.000936
32406	10663236	0.121432	-9.745606	-0.040580	-0.008844	-0.001168	-0.002909
32407	10663261	0.113549	-9.742814	-0.011664	-0.001159	-0.003164	-0.001331
32408	10663286	0.113341	-9.722398	-0.013204	-0.007898	-0.002962	-0.003304
32409	10663311	0.128539	-9.757463	-0.003723	-0.008161	-0.003038	-0.007153
32410	10663336	0.113988	-9.764984	-0.020383	-0.007433	-0.006065	-0.009796
32411	10663361	0.086437	-9.729431	-0.040374	-0.005798	0.001858	-0.004567
32412	10663386	0.105669	-9.747468	-0.024217	-0.009255	-0.002666	-0.006697
32413	10663411	0.115692	-9.705869	-0.037690	-0.009161	0.000499	-0.006102
32414	10663436	0.110919	-9.751193	-0.024113	0.001825	-0.000793	-0.004920
32415	10663461	0.114387	-9.734261	-0.011826	-0.007595	-0.001851	0.001250
32416	10663486	0.125650	-9.755916	-0.014163	-0.001498	-0.000393	-0.001130
32417	10663511	0.125764	-9.759050	-0.026207	-0.006062	-0.000082	-0.002138
32418	10663536	0.098854	-9.739022	-0.023646	-0.004168	-0.001408	-0.003432
32419	10663561	0.105127	-9.736822	-0.038074	-0.006069	0.000046	-0.003035
32420	10663586	0.093447	-9.729600	-0.023558	-0.002238	-0.007696	-0.000195
32421	10663611	0.111082	-9.763437	-0.030931	-0.004710	-0.002383	-0.001581
32422	10663636	0.110628	-9.734803	-0.010252	-0.003193	0.002487	-0.001557
32423	10663661	0.083135	-9.733937	-0.027910	-0.005491	-0.002211	-0.006317
32424	10663686	0.091127	-9.760730	-0.037516	-0.005135	-0.001101	-0.004777
32425	10663711	0.112158	-9.743237	-0.016591	-0.007679	-0.001530	-0.001693
32426	10663736	0.077980	-9.709907	-0.020751	-0.010425	0.002488	-0.001663
32427	10663761	0.089309	-9.748947	-0.002539	-0.006081	-0.003377	-0.002347
32428	10663786	0.128888	-9.781331	-0.024786	-0.007403	-0.000039	-0.000924
32429	10663811	0.105420	-9.738229	-0.008381	-0.007102	-0.001782	-0.003296
32430	10663836	0.092587	-9.735834	-0.020282	-0.008261	-0.001091	-0.000855
32431	10663861	0.102539	-9.735833	-0.012194	-0.005324	-0.001039	-0.002980
32432	10663886	0.131073	-9.753511	-0.042508	-0.004807	-0.001290	-0.003757
32433	10663911	0.105442	-9.732180	-0.031466	-0.011238	-0.004435	-0.001313
32434	10663936	0.088727	-9.766960	-0.035097	-0.005421	-0.001808	0.001703
32435	10663961	0.107105	-9.742473	-0.039519	-0.004888	-0.005040	-0.004219
32436	10663986	0.102838	-9.756100	-0.020833	-0.008330	-0.003284	-0.002278
32437	10664011	0.132824	-9.750330	-0.031981	-0.002997	-0.004096	-0.001277
32438	10664036	0.132683	-9.740954	-0.024812	-0.008780	0.003099	-0.000130
32439	10664061	0.109121	-9.726243	-0.013135	-0.002401	0.001462	-0.004767
32440	10664086	0.107670	-9.761556	-0.031810	-0.000933	-0.001919	0.004634
32441	10664111	0.125288	-9.763932	-0.017086	-0.005682	-0.006019	-0.000958
32442	10664136	0.114819	-9.751563	-0.028011	-0.002253	-0.003643	-0.006720
32443	10664161	0.107790	-9.734702	-0.019889	-0.004835	-0.000381	-0.001502
32444	10664186	0.095141	-9.742306	-0.029352	-0.002787	-0.000353	-0.004651
32445	10664211	0.118607	-9.751362	-0.038579	-0.001852	0.000578	-0.000226
32446	10664236	0.151599	-9.777922	-0.011920	-0.004575	-0.000632	-0.000739
32447	10664261	0.114077	-9.734911	-0.031889	-0.001511	0.000128	-0.000489
32448	10664286	0.119404	-9.743279	-0.038613	-0.003707	0.000744	0.001325
32449	10664311	0.109390	-9.750032	-0.008387	-0.006609	-0.002939	-0.002091
32450	10664336	0.114108	-9.747929	-0.017958	-0.004530	-0.005861	0.001673
32451	10664361	0.115334	-9.767352	-0.018498	-0.005725	0.001672	-0.002643
32452	10664386	0.109369	-9.755419	0.002717	-0.000775	0.000843	-0.003944
32453	10664411	0.097794	-9.747993	0.004091	-0.008677	-0.002255	0.000228
32454	10664436	0.113868	-9.767890	-0.016065	-0.005430	-0.001553	0.000289
32455	10664461	0.101235	-9.747307	-0.007403	-0.006588	-0.001711	-0.004010
32456	10664486	0.104412	-9.734928	-0.007863	-0.004876	-0.007363	-0.002821
32457	10664511	0.118432	-9.755135	-0.008925	-0.005752	0.002709	0.001335
32458	10664536	0.109313	-9.756805	0.000651	-0.012162	-0.000760	0.004224
32459	10664561	0.100141	-9.750003	0.013682	-0.008915	-0.002581	0.001000
32460	10664586	0.076363	-9.735702	-0.011119	-0.007701	-0.001152	-0.005277
32461	10664611	0.126093	-9.746824	-0.019041	-0.008924	-0.000852	-0.005347
32462	10664636	0.089599	-9.730392	-0.006363	-0.004788	-0.002068	-0.004461
32463	10664661	0.105313	-9.728752	-0.007422	-0.007451	0.003244	-0.006282
32464	10664686	0.096982	-9.739290	-0.038588	-0.011024	-0.000614	0.000760
32465	10664711	0.119886	-9.743780	-0.036697	-0.004373	0.003573	0.001334
32466	10664736	0.070792	-9.729491	-0.049453	-0.006805	-0.000615	-0.001691
32467	10664761	0.124289	-9.749871	-0.038135	-0.003675	-0.000748	-0.002019
32468	10664786	0.116998	-9.774158	-0.038192	-0.009854	-0.003447	-0.000738
32469	10664811	0.108307	-9.729195	-0.038055	-0.005022	-0.002642	-0.000231
32470	10664836	0.090637	-9.727705	-0.026031	-0.007345	-0.006182	-0.003064
32471	10664861	0.140338	-9.746199	-0.017152	-0.004324	0.001691	-0.002651
32472	10664886	0.098313	-9.741179	-0.007358	-0.004250	-0.000700	-0.003235
32473	10664911	0.110773	-9.751840	-0.013126	-0.003667	-0.004356	0.004245
32474	10664936	0.118403	-9.741938	-0.033833	-0.003448	-0.001575	0.001049
32475	10664961	0.095705	-9.746861	-0.040899	-0.005573	0.000700	-0.001110
32476	10664986	0.114607	-9.744537	-0.022186	0.001933	-0.001553	-0.000687
32477	10665011	0.100618	-9.737385	-0.004965	-0.002679	-0.001511	-0.001451
32478	10665036	0.099146	-9.744197	0.005608	-0.003941	0.000158	0.001003
32479	10665061	0.100507	-9.758514	-0.019787	-0.005510	-0.005312	-0.002038
32480	10665086	0.118134	-9.746468	-0.048703	-0.005135	-0.001228	-0.002337
32481	10665111	0.110837	-9.743206	-0.019425	-0.007318	-0.003086	-0.005232
32482	10665136	0.113072	-9.775484	-0.016958	-0.001484	0.001161	-0.001314
32483	10665161	0.101469	-9.749621	-0.042366	-0.006504	-0.004096	-0.000173
32484	10665186	0.099895	-9.747701	-0.013687	-0.012547	-0.001886	-0.008480
32485	10665211	0.091157	-9.738141	-0.024985	-0.001173	-0.000572	0.000349
32486	10665236	0.131859	-9.758216	-0.013726	-0.001423	-0.000902	-0.000559
32487	10665261	0.105146	-9.755824	-0.005920	-0.002712	-0.001065	-0.005996
32488	10665286	0.127407	-9.740644	-0.019012	-0.004742	-0.005487	-0.002305
32489	10665311	0.091182	-9.730864	-0.036085	-0.004920	-0.001545	-0.001189
32490	10665336	0.115326	-9.726912	-0.026658	-0.007725	0.000349	0.000629
32491	10665361	0.095013	-9.736120	-0.030411	-0.006908	0.002685	0.000378
32492	10665386	0.105471	-9.750817	0.008436	-0.007249	0.000925	-0.004436
32493	10665411	0.146534	-9.776199	-0.035860	-0.003964	0.000344	-0.001316
32494	10665436	0.112288	-9.754044	-0.022226	-0.001419	-0.003028	0.000785
32495	10665461	0.128831	-9.739077	-0.026592	0.003125	-0.003150	-0.001541
32496	10665486	0.096491	-9.706966	-0.012150	-0.004296	0.000590	-0.004314
32497	10665511	0.115691	-9.712511	-0.037142	-0.003064	0.000428	-0.000919
32498	10665536	0.125550	-9.743441	-0.023325	-0.005960	0.001021	-0.002135
32499	10665561	0.125973	-9.739767	-0.014662	-0.001171	-0.001100	-0.004344
32500	10665586	0.105036	-9.736919	-0.032318	-0.005615	-0.004272	-0.002481
32501	10665611	0.113862	-9.753917	-0.030477	-0.008580	-0.003619	-0.004138
32502	10665636	0.105083	-9.734784	-0.047736	-0.011680	-0.000304	-0.000267
32503	10665661	0.113284	-9.744157	-0.048165	-0.004096	0.001192	0.003697
32504	10665686	0.124842	-9.753208	-0.036657	0.000249	-0.001334	-0.004150
32505	10665711	0.143932	-9.730034	-0.016694	-0.005530	-0.002855	-0.002411
32506	10665736	0.108854	-9.742761	-0.019398	-0.005953	-0.003311	-0.000681
32507	10665761	0.121710	-9.739661	-0.025693	-0.004557	0.001177	-0.000855
32508	10665786	0.101443	-9.720623	-0.015066	-0.007004	-0.000748	-0.002269
32509	10665811	0.087315	-9.727657	-0.032209	-0.002868	-0.001770	-0.001962
32510	10665836	0.086497	-9.716791	0.001759	-0.007854	0.002277	-0.001931
32511	10665861	0.073632	-9.751439	-0.007251	-0.005493	0.000383	0.000618
32512	10665886	0.106112	-9.748906	-0.023256	-0.006092	0.003083	-0.000393
32513	10665911	0.106249	-9.756321	-0.034183	-0.002216	0.001988	-0.001113
32514	10665936	0.077936	-9.739124	-0.034124	-0.007103	0.000677	0.000370
32515	10665961	0.112358	-9.724915	-0.004494	-0.002423	-0.001569	-0.001836
32516	10665986	0.081070	-9.734737	-0.007764	-0.003575	0.002541	-0.001034
32517	10666011	0.091519	-9.732745	-0.005382	-0.001222	0.000644	-0.004005
32518	10666036	0.087682	-9.728903	-0.011596	-0.002025	-0.004280	-0.002362
32519	10666061	0.122895	-9.752379	-0.030492	-0.005755	-0.001891	-0.004973
32520	10666086	0.082082	-9.741926	-0.002510	-0.007355	-0.001656	-0.002460
32521	10666111	0.101841	-9.760630	-0.004572	-0.011750	0.001755	-0.001985
32522	10666136	0.102275	-9.748924	-0.025107	-0.004692	-0.003028	-0.002670
32523	10666161	0.076417	-9.737825	-0.026899	-0.007033	-0.003581	0.000799
32524	10666186	0.110600	-9.756210	-0.038602	-0.007871	-0.001669	-0.004067
32525	10666211	0.100416	-9.753263	-0.021702	-0.004369	-0.001022	-0.002208
32526	10666236	0.100241	-9.732721	-0.031294	-0.003022	0.003135	-0.003347
32527	10666261	0.099282	-9.739548	-0.019776	-0.000183	-0.001852	-0.001912
32528	10666286	0.113362	-9.755473	-0.021808	-0.004102	-0.001474	-0.003184
32529	10666311	0.098561	-9.747897	-0.033258	-0.005573	-0.001372	-0.005101
32530	10666336	0.103870	-9.766202	-0.010286	-0.009190	-0.002402	-0.003296
32531	10666361	0.089081	-9.750812	-0.036647	-0.013515	-0.003448	-0.003031
32532	10666386	0.101080	-9.754930	-0.036630	-0.007203	-0.000560	-0.005731
32533	10666411	0.133153	-9.744046	-0.008988	-0.007571	-0.001283	-0.005734
32534	10666436	0.077433	-9.730075	-0.036918	-0.002378	-0.003517	-0.006653
32535	10666461	0.108259	-9.722069	-0.039111	-0.010894	-0.005405	-0.004910
32536	10666486	0.129403	-9.744191	-0.032928	-0.006652	-0.003573	-0.000301
32537	10666511	0.129018	-9.749029	-0.027704	-0.009702	-0.004870	-0.005040
32538	10666536	0.121297	-9.746372	-0.021380	-0.005624	0.000443	-0.000796
32539	10666561	0.097821	-9.735817	-0.017020	-0.011815	-0.004256	-0.001633
32540	10666586	0.107202	-9.729217	-0.006983	-0.008242	0.002007	-0.004302
32541	10666611	0.113345	-9.733993	0.001143	-0.009131	0.000322	0.001210
32542	10666636	0.136485	-9.748832	-0.003243	-0.006635	-0.000361	-0.006694
32543	10666661	0.120680	-9.738874	-0.016158	-0.010014	0.001660	-0.000900
32544	10666686	0.111643	-9.760861	-0.043363	-0.003660	-0.001337	-0.004075
32545	10666711	0.121766	-9.744452	-0.022396	-0.008395	-0.001292	-0.003423
32546	10666736	0.128688	-9.764306	-0.021869	-0.003710	0.002344	-0.004952
32547	10666761	0.126642	-9.743672	-0.038655	-0.004691	-0.000708	-0.000739
32548	10666786	0.109067	-9.746665	-0.043357	-0.005603	-0.002465	-0.002539
32549	10666811	0.134180	-9.750332	-0.031004	-0.002550	-0.003238	0.005463
32550	10666836	0.109077	-9.721422	-0.018465	-0.007330	-0.002241	-0.000989
32551	10666861	0.105813	-9.750120	-0.036545	-0.001271	-0.002146	-0.007480
32552	10666886	0.119428	-9.749751	-0.018392	0.002332	-0.002398	-0.003842
32553	10666911	0.117032	-9.736549	-0.046250	-0.002806	0.000231	-0.002146
32554	10666936	0.118545	-9.742748	-0.042929	-0.004697	-0.002840	-0.002353
32555	10666961	0.097011	-9.725677	-0.060494	-0.000066	0.000729	-0.003117
32556	10666986	0.114152	-9.735780	-0.037128	-0.001220	-0.001745	-0.006014
32557	10667011	0.120776	-9.746486	-0.014154	-0.003816	0.000024	-0.000933
32558	10667036	0.116436	-9.737871	-0.022728	-0.001015	0.000195	-0.003366
32559	10667061	0.110304	-9.745604	-0.017908	0.002311	0.000392	-0.001456
32560	10667086	0.130102	-9.754848	-0.049188	-0.002511	-0.002789	0.002067
32561	10667111	0.116606	-9.760668	-0.020372	-0.002432	0.001155	0.004338
32562	10667136	0.114576	-9.738825	-0.023696	-0.000361	-0.002241	-0.002621
32563	10667161	0.113570	-9.746623	-0.010258	-0.000006	0.000997	0.000992
32564	10667186	0.109688	-9.735745	-0.011706	-0.003909	0.000861	-0.000407
32565	10667211	0.126817	-9.728577	-0.032454	-0.007300	-0.000806	0.003818
32566	10667236	0.118893	-9.740484	-0.035692	-0.001460	-0.001606	0.001238
32567	10667261	0.099516	-9.749269	-0.035603	0.000474	-0.004165	-0.000772
32568	10667286	0.125468	-9.731901	-0.032802	0.002895	-0.001928	-0.001468
32569	10667311	0.075579	-9.713346	-0.014897	-0.003742	-0.002365	-0.000997
32570	10667336	0.109800	-9.751564	-0.001101	0.002043	-0.003032	-0.000319
32571	10667361	0.134595	-9.745282	-0.019563	-0.010002	-0.004934	-0.000554
32572	10667386	0.129391	-9.747190	-0.022860	-0.005654	-0.002660	-0.000042
32573	10667411	0.097861	-9.739878	-0.029809	-0.000550	0.004424	0.003831
32574	10667436	0.110234	-9.750062	-0.005562	-0.007863	0.000606	0.001650
32575	10667461	0.126163	-9.761514	-0.019443	-0.004429	0.001639	0.003506
32576	10667486	0.104292	-9.761335	-0.018914	-0.007360	-0.000998	0.003117
32577	10667511	0.114701	-9.751348	-0.011728	-0.002609	-0.000094	-0.005549
32578	10667536	0.107744	-9.741540	-0.006493	-0.008236	0.006673	0.002842
32579	10667561	0.092013	-9.741009	0.007954	-0.007717	0.001889	-0.001028
32580	10667586	0.080592	-9.741150	0.008051	-0.005665	-0.002597	-0.003946
32581	10667611	0.089953	-9.730382	-0.005438	-0.005239	0.000978	0.004026
32582	10667636	0.098207	-9.727150	-0.024573	0.000617	-0.002675	-0.001083
32583	10667661	0.104406	-9.734821	-0.014138	-0.006852	0.001070	0.000885
32584	10667686	0.129974	-9.762573	-0.009471	-0.009038	0.001226	-0.000718
32585	10667711	0.092712	-9.747124	-0.025587	-0.008957	-0.005293	0.002781
32586	10667736	0.105897	-9.742456	-0.010328	-0.011188	-0.001587	0.000821
32587	10667761	0.077992	-9.752762	-0.011149	-0.008409	-0.002708	-0.001439
32588	10667786	0.096553	-9.751451	-0.019893	-0.011152	0.001127	0.000763
32589	10667811	0.121815	-9.751807	-0.006612	-0.012308	0.000833	-0.006159
32590	10667836	0.117156	-9.755429	-0.021952	-0.014652	0.000215	-0.003782
32591	10667861	0.101602	-9.760187	-0.033751	-0.006421	-0.003262	-0.006129
32592	10667886	0.106205	-9.753130	-0.026179	-0.009078	0.000249	-0.003734
32593	10667911	0.082014	-9.749645	-0.056134	-0.002886	0.001009	-0.000405
32594	10667936	0.080164	-9.727280	-0.030825	-0.009896	-0.006288	-0.000812
32595	10667961	0.093344	-9.736614	-0.062026	-0.009088	-0.003755	-0.003110
32596	10667986	0.088910	-9.745812	-0.021738	-0.008313	-0.001737	-0.002590
32597	10668011	0.113897	-9.754237	-0.040559	-0.010148	-0.002483	-0.003873
32598	10668036	0.116872	-9.757273	-0.056886	-0.010970	0.001381	-0.000457
32599	10668061	0.102803	-9.737537	-0.055304	-0.005537	0.003868	-0.002311
32600	10668086	0.104284	-9.707796	-0.044794	-0.005895	-0.003371	-0.001001
32601	10668111	0.113829	-9.752051	-0.028494	-0.002779	-0.002803	-0.003509
32602	10668136	0.122403	-9.746675	-0.031902	-0.004174	-0.003484	-0.007293
32603	10668161	0.109210	-9.761850	-0.042468	-0.010698	-0.003068	0.001127
32604	10668186	0.099607	-9.751116	-0.039454	-0.003742	-0.000824	-0.006448
32605	10668211	0.103294	-9.735184	-0.054363	-0.004072	0.001757	-0.003865
32606	10668236	0.120568	-9.751236	-0.044868	-0.005020	-0.000581	-0.002208
32607	10668261	0.150150	-9.759585	-0.033507	-0.006488	-0.001001	-0.005357
32608	10668286	0.119203	-9.726315	-0.031424	-0.004193	0.001696	-0.000726
32609	10668311	0.118020	-9.718490	-0.016074	-0.001468	0.002846	-0.000848
32610	10668336	0.134072	-9.741449	-0.022368	-0.003788	-0.003010	0.000852
32611	10668361	0.138237	-9.762502	-0.038188	0.000104	-0.004750	0.000378
32612	10668386	0.126185	-9.723579	-0.017983	0.001448	-0.000334	0.001623
32613	10668411	0.106335	-9.746522	0.007898	-0.008263	-0.003222	-0.000997
32614	10668436	0.085997	-9.747314	-0.018751	-0.001425	-0.000377	0.003427
32615	10668461	0.082107	-9.698768	-0.031652	0.001615	0.000648	0.003882
32616	10668486	0.076118	-9.711754	-0.025964	-0.007339	-0.003788	0.000603
32617	10668511	0.101426	-9.729272	-0.007355	-0.001967	0.002453	0.002351
32618	10668536	0.090210	-9.747010	-0.003964	-0.003445	0.000614	0.000297
32619	10668561	0.115318	-9.739113	-0.004028	-0.000861	-0.004439	0.001928
32620	10668586	0.115254	-9.721822	-0.017968	-0.005822	0.002635	-0.001803
32621	10668611	0.099514	-9.760517	-0.013546	-0.002098	0.000116	-0.001633
32622	10668636	0.104640	-9.749919	-0.019855	-0.004394	-0.002119	-0.000423
32623	10668661	0.099348	-9.752913	-0.014514	-0.002949	-0.000787	0.004454
32624	10668686	0.084592	-9.749788	-0.012992	-0.000609	-0.004050	0.002377
32625	10668711	0.093226	-9.745127	-0.032311	-0.006582	0.000428	0.000051
32626	10668736	0.085752	-9.739107	0.003236	-0.008106	0.000215	0.002484
32627	10668761	0.110363	-9.756261	-0.004065	-0.004894	0.001685	-0.001426
32628	10668786	0.123920	-9.765409	-0.015689	-0.007595	-0.000113	-0.004001
32629	10668811	0.101193	-9.773688	-0.019797	-0.003737	-0.003015	-0.003509
32630	10668836	0.089761	-9.736776	-0.022638	-0.003888	-0.001983	-0.002797
32631	10668861	0.094644	-9.730080	-0.053374	-0.006257	-0.002159	-0.004588
32632	10668886	0.110158	-9.735626	-0.019403	-0.005920	-0.002268	0.000606
32633	10668911	0.093887	-9.719687	-0.019255	0.000897	-0.001776	-0.005051
32634	10668936	0.087158	-9.754424	-0.018778	-0.001535	-0.001946	-0.007741
32635	10668961	0.069040	-9.718484	-0.025907	-0.006455	-0.003766	-0.000486
32636	10668986	0.103758	-9.747780	-0.036135	-0.003105	0.004050	-0.000907
32637	10669011	0.098540	-9.746991	-0.030824	-0.004019	0.000080	-0.003748
32638	10669036	0.116434	-9.732914	-0.036659	-0.003286	-0.000547	0.001118
32639	10669061	0.116340	-9.735231	-0.009767	0.001816	-0.000143	-0.003569
32640	10669086	0.105499	-9.737144	-0.016950	-0.001599	-0.003818	-0.004867
32641	10669111	0.109316	-9.744662	-0.018455	-0.005166	-0.001672	0.002144
32642	10669136	0.096942	-9.729248	-0.043717	-0.002365	0.002758	-0.001748
32643	10669161	0.104460	-9.739095	-0.014100	-0.005268	-0.000776	-0.000344
32644	10669186	0.118523	-9.759826	-0.012233	-0.005151	-0.004201	0.000530
32645	10669211	0.121736	-9.740621	-0.024760	-0.006872	0.001322	-0.001426
32646	10669236	0.131484	-9.762364	-0.021890	-0.003986	-0.002821	-0.000110
32647	10669261	0.103218	-9.747034	-0.023621	-0.002392	-0.002539	-0.001264
32648	10669286	0.129350	-9.737515	-0.035324	-0.005004	0.000972	-0.000341
32649	10669311	0.121187	-9.754874	0.007912	-0.001922	0.005361	0.002493
32650	10669336	0.086857	-9.730683	-0.020181	-0.000946	-0.000329	-0.006899
32651	10669361	0.095169	-9.722251	-0.006377	-0.005326	-0.002651	0.001310
32652	10669386	0.111891	-9.735225	0.018037	-0.000890	-0.005943	-0.004680
32653	10669411	0.125944	-9.744644	-0.006566	-0.006270	0.000431	-0.001942
32654	10669436	0.138697	-9.729588	-0.019121	-0.008738	-0.006591	-0.001846
32655	10669461	0.130482	-9.756226	-0.021454	-0.008351	-0.002512	-0.002019
32656	10669486	0.101786	-9.752816	-0.018342	-0.001563	0.001881	0.001769
32657	10669511	0.096903	-9.738140	-0.020740	-0.003318	-0.001843	-0.003566
32658	10669536	0.075841	-9.731364	-0.015323	0.000328	-0.003520	-0.001463
32659	10669561	0.090262	-9.730321	-0.041355	-0.004205	0.000016	-0.001562
32660	10669586	0.102920	-9.747541	-0.052912	-0.004157	-0.003597	-0.001521
32661	10669611	0.120444	-9.745103	-0.042389	0.001511	0.003612	0.000232
32662	10669636	0.109521	-9.758848	-0.021746	-0.000863	0.001822	0.000358
32663	10669661	0.109508	-9.756088	-0.015997	-0.000213	-0.000621	-0.002287
32664	10669686	0.091641	-9.746033	-0.004876	-0.001973	-0.001356	0.002015
32665	10669711	0.083707	-9.732580	-0.054246	-0.000261	0.000666	-0.003365
32666	10669736	0.070666	-9.743214	-0.020698	-0.009163	-0.000705	0.003962
32667	10669761	0.061896	-9.748620	-0.046941	-0.005458	-0.000386	0.003313
32668	10669786	0.077780	-9.728777	-0.028371	-0.004634	0.001560	-0.001298
32669	10669811	0.092213	-9.754628	-0.001091	-0.003409	-0.002684	-0.000428
32670	10669836	0.085838	-9.763729	-0.031745	-0.007060	0.001390	-0.000525
32671	10669861	0.106183	-9.759384	-0.019865	-0.002868	0.000623	0.000358
32672	10669886	0.103433	-9.735310	-0.014066	-0.002678	0.002894	0.000688
32673	10669911	0.108052	-9.752809	-0.014547	-0.001638	0.001606	-0.005668
32674	10669936	0.109759	-9.736544	-0.022257	-0.003926	-0.002562	-0.002097
32675	10669961	0.101264	-9.744780	-0.017440	-0.004628	-0.000703	-0.003754
32676	10669986	0.107346	-9.773122	-0.020401	-0.008868	-0.006655	-0.003579
32677	10670011	0.114243	-9.747808	-0.026160	-0.008032	-0.000639	-0.003360
32678	10670036	0.119016	-9.721534	-0.003201	-0.006883	0.001577	-0.005783
32679	10670061	0.123122	-9.729104	-0.032435	-0.006516	-0.002035	-0.006257
32680	10670086	0.131116	-9.723769	-0.033421	-0.006619	-0.000675	-0.004068
32681	10670111	0.127422	-9.750384	-0.001788	-0.007871	0.004929	-0.001919
32682	10670136	0.138598	-9.759002	-0.018592	-0.004889	-0.002773	-0.002415
32683	10670161	0.109757	-9.739852	-0.022275	-0.007135	-0.000286	0.001189
32684	10670186	0.127731	-9.772168	-0.004134	-0.005731	-0.000271	-0.003815
32685	10670211	0.100225	-9.750777	0.001755	-0.004002	-0.004432	-0.001718
32686	10670236	0.117542	-9.752254	-0.011848	-0.009191	-0.002339	-0.003751
32687	10670261	0.127200	-9.712378	-0.036344	-0.010422	0.000420	-0.003606
32688	10670286	0.116156	-9.746740	-0.031855	-0.003003	-0.001647	-0.002863
32689	10670311	0.126188	-9.749453	-0.032892	-0.005452	-0.001104	-0.002664
32690	10670336	0.089607	-9.723872	-0.028906	-0.005317	0.001037	-0.000852
32691	10670361	0.107876	-9.741442	-0.013111	-0.001162	0.001036	-0.004074
32692	10670386	0.128375	-9.743558	-0.014277	-0.008151	-0.000703	-0.003362
32693	10670411	0.109685	-9.764342	-0.034750	-0.006364	-0.000668	-0.002719
32694	10670436	0.115029	-9.734851	-0.034726	-0.002201	-0.000526	-0.002348
32695	10670461	0.083155	-9.737653	-0.033103	0.000498	0.005396	-0.002961
32696	10670486	0.088421	-9.709751	-0.022154	-0.002655	-0.001955	0.002073
32697	10670511	0.109999	-9.751058	-0.033776	-0.002824	-0.001116	-0.000936
32698	10670536	0.116250	-9.750366	-0.042869	-0.001505	-0.002329	-0.001590
32699	10670561	0.113064	-9.732227	-0.022272	-0.003581	-0.001593	-0.004150
32700	10670586	0.123266	-9.743665	-0.041067	-0.008279	-0.002760	-0.000164
32701	10670611	0.136874	-9.774590	-0.024270	-0.002147	0.000127	0.001566
32702	10670636	0.135681	-9.766483	0.003054	-0.002125	0.001085	-0.000866
32703	10670661	0.099496	-9.755776	-0.013552	-0.002345	-0.002283	-0.005302
32704	10670686	0.103012	-9.742576	-0.004539	-0.008437	-0.001667	-0.000863
32705	10670711	0.114275	-9.775866	0.009785	-0.007881	-0.000818	0.001191
32706	10670736	0.117836	-9.733145	-0.019925	-0.005633	0.002636	-0.004312
32707	10670761	0.095696	-9.760046	-0.016520	-0.011615	-0.000173	-0.000265
32708	10670786	0.108530	-9.738761	0.029474	-0.006089	-0.002991	-0.002031
32709	10670811	0.103492	-9.742813	0.010851	-0.002569	0.000747	-0.007346
32710	10670836	0.099007	-9.763591	0.000684	-0.010091	0.001909	-0.005260
32711	10670861	0.114908	-9.773211	-0.008921	-0.009146	-0.005952	-0.004473
32712	10670886	0.081359	-9.746353	-0.024605	-0.009041	-0.001107	-0.005341
32713	10670911	0.111913	-9.751098	-0.030003	-0.008963	0.000639	-0.003864
32714	10670936	0.106500	-9.748761	-0.000699	-0.008327	-0.003618	-0.007282
32715	10670961	0.094890	-9.767239	-0.012235	-0.013348	-0.000410	-0.005591
32716	10670986	0.093377	-9.718675	-0.024633	-0.008504	-0.001548	-0.002207
32717	10671011	0.089909	-9.747725	-0.020332	-0.011511	-0.003926	-0.004710
32718	10671036	0.105227	-9.753201	-0.022309	-0.008498	0.000064	-0.004695
32719	10671061	0.092075	-9.726791	-0.022733	-0.010282	-0.002424	-0.006759
32720	10671086	0.104115	-9.714649	0.000199	-0.009228	-0.001046	-0.004578
32721	10671111	0.122800	-9.741083	-0.024722	-0.008197	-0.003946	-0.009403
32722	10671136	0.116196	-9.757304	-0.024268	-0.009929	0.003149	-0.002053
32723	10671161	0.104701	-9.750784	-0.025610	-0.004324	0.002281	0.001013
32724	10671186	0.112960	-9.734015	0.002056	-0.012475	-0.002080	-0.007713
32725	10671211	0.118727	-9.755490	-0.047788	-0.009890	-0.000405	-0.002451
32726	10671236	0.123702	-9.741383	-0.035299	-0.009327	-0.001946	-0.002144
32727	10671261	0.112506	-9.752232	-0.048609	-0.003251	0.000224	-0.002275
32728	10671286	0.144148	-9.763186	-0.051637	-0.002752	0.000226	-0.005612
32729	10671311	0.128777	-9.761842	-0.058289	0.000912	0.000887	0.003615
32730	10671336	0.124944	-9.764488	-0.043406	-0.002280	0.000450	0.003880
32731	10671361	0.122891	-9.757227	-0.023709	0.001563	-0.002009	-0.001147
32732	10671386	0.117774	-9.760396	-0.038169	-0.007261	-0.000685	-0.002973
32733	10671411	0.112275	-9.740412	-0.045763	-0.003384	0.002684	0.001073
32734	10671436	0.119672	-9.768277	-0.017443	0.002071	0.000136	-0.000630
32735	10671461	0.119213	-9.772332	-0.031391	-0.001121	0.002342	0.003755
32736	10671486	0.129482	-9.748435	-0.034289	-0.002103	-0.001562	-0.000107
32737	10671511	0.136420	-9.736588	-0.028115	-0.001717	0.002851	0.002605
32738	10671536	0.092250	-9.744674	-0.031748	-0.002301	-0.001693	-0.001962
32739	10671561	0.092376	-9.753334	-0.023551	-0.001729	-0.005372	-0.002500
32740	10671586	0.139647	-9.732973	-0.013767	-0.001678	0.003356	-0.000469
32741	10671611	0.108291	-9.757057	-0.046765	-0.009257	-0.000332	-0.003734
32742	10671636	0.106536	-9.745556	-0.024155	-0.003262	-0.005521	-0.001663
32743	10671661	0.118026	-9.745882	-0.024741	-0.007017	-0.002298	-0.004779
32744	10671686	0.108508	-9.754145	-0.019411	-0.005749	-0.001623	0.000088
32745	10671711	0.099168	-9.743543	-0.006400	-0.003822	-0.001191	0.005482
32746	10671736	0.124572	-9.753103	-0.012281	-0.005691	-0.001028	0.004709
32747	10671761	0.105905	-9.737629	-0.015552	-0.004163	-0.003275	-0.001201
32748	10671786	0.123656	-9.743034	-0.020460	-0.007679	-0.003338	-0.000747
32749	10671811	0.107404	-9.742503	-0.006454	-0.006564	-0.000614	-0.005732
32750	10671836	0.125238	-9.755306	-0.023283	-0.004010	0.001954	-0.003996
32751	10671861	0.151093	-9.762953	-0.029721	-0.007807	-0.005668	-0.003003
32752	10671886	0.137911	-9.740482	-0.021016	-0.007749	-0.003341	-0.002861
32753	10671911	0.135375	-9.765647	-0.021471	-0.006343	-0.005449	-0.003454
32754	10671936	0.117079	-9.753525	-0.021864	-0.006358	-0.002795	-0.001130
32755	10671961	0.119857	-9.749712	-0.020428	-0.008594	-0.002506	0.002532
32756	10671986	0.108386	-9.762758	0.016500	-0.010687	0.000745	-0.001997
32757	10672011	0.078691	-9.734344	-0.004449	-0.010374	-0.001389	-0.003222
32758	10672036	0.103443	-9.724712	-0.025149	-0.007679	-0.001208	-0.001186
32759	10672061	0.132341	-9.756798	-0.012772	-0.003339	-0.002810	0.000207
32760	10672086	0.112026	-9.767258	-0.027520	0.000431	0.001657	0.002469
32761	10672111	0.094322	-9.746305	-0.047585	-0.006719	-0.001323	-0.003108
32762	10672136	0.091598	-9.759294	-0.038461	-0.002874	0.000359	-0.004071
32763	10672161	0.115974	-9.747736	0.001578	-0.010015	-0.004940	-0.005427
32764	10672186	0.112131	-9.761720	-0.049207	-0.011325	-0.003596	-0.001825
32765	10672211	0.110652	-9.760306	-0.049646	-0.010064	-0.000858	-0.001560
32766	10672236	0.094917	-9.726638	-0.030360	-0.006464	-0.003511	-0.002092
32767	10672261	0.107215	-9.759277	-0.026614	-0.007327	-0.000361	-0.002596
32768	10672286	0.118859	-9.773819	-0.028095	-0.006251	-0.000282	-0.004448
32769	10672311	0.120002	-9.750090	-0.027677	-0.010854	-0.000301	-0.004892
32770	10672336	0.108142	-9.757005	-0.019893	-0.008149	-0.003162	-0.006896
32771	10672361	0.090427	-9.749007	-0.029413	-0.008221	-0.002509	-0.002722
32772	10672386	0.078506	-9.753471	-0.025951	-0.005600	0.000004	0.000685
32773	10672411	0.104836	-9.755301	-0.039943	-0.003457	-0.005066	0.002058
32774	10672436	0.116559	-9.743457	-0.029560	-0.010537	-0.006232	-0.001332
