// General information: 
//  MT Manager version: 2022.0.0 
//  XDA version: 2022.0.0 build 7085 rev 119802 built on 2022-11-08
// Device information: 
//  DeviceId: 037004D1
//  ProductCode: MTi-300-2A5G4
//  Firmware Version: 1.4.1
//  Hardware Version: 2.1.0
// Device settings: 
//  Filter Profile: general(39.16)
//  Option Flags: Orientation Smoother Disabled, Position/Velocity Smoother Disabled, Continuous Zero Rotation Update Disabled, AHS Disabled, ICC Disabled
// Coordinate system: ENU
PacketCounter	SampleTimeFine	Acc_X	Acc_Y	Acc_Z	Gyr_X	Gyr_Y	Gyr_Z
43434	14215736	-9.869085	-0.072881	-0.014294	-0.004190	-0.005549	-0.005415
43435	14215761	-9.840881	-0.110633	-0.031256	-0.008044	-0.000826	-0.001282
43436	14215786	-9.817646	-0.104775	-0.026549	-0.009598	-0.002480	-0.003017
43437	14215811	-9.808355	-0.116204	-0.044760	-0.002201	-0.005506	-0.001644
43438	14215836	-9.830218	-0.127175	-0.027891	-0.007056	-0.003651	-0.000849
43439	14215861	-9.831148	-0.088653	-0.032775	-0.006773	-0.000349	0.001536
43440	14215886	-9.846239	-0.107632	-0.019210	-0.005904	-0.002024	-0.004752
43441	14215911	-9.839784	-0.103175	0.005668	-0.007187	-0.003922	-0.006045
43442	14215936	-9.820615	-0.104097	-0.011645	-0.005999	-0.004996	-0.003555
43443	14215961	-9.837353	-0.090729	-0.026505	-0.003691	-0.000553	-0.000203
43444	14215986	-9.851324	-0.119923	-0.019213	-0.005132	-0.001419	0.002235
43445	14216011	-9.837699	-0.131308	-0.041772	-0.003222	-0.003393	-0.000213
43446	14216036	-9.839934	-0.114061	-0.024059	-0.000435	-0.002564	-0.002019
43447	14216061	-9.834904	-0.097932	-0.021174	-0.003619	-0.003079	-0.002010
43448	14216086	-9.809631	-0.101851	-0.019914	-0.008142	-0.001533	0.001983
43449	14216111	-9.865069	-0.084488	-0.023048	-0.011295	0.001055	0.000532
43450	14216136	-9.814471	-0.095776	-0.020875	-0.003681	0.002928	-0.003068
43451	14216161	-9.840107	-0.084656	-0.055695	-0.004755	0.000459	-0.002177
43452	14216186	-9.839243	-0.064079	-0.004928	0.002888	-0.000052	-0.001366
43453	14216211	-9.815706	-0.107510	-0.026099	0.000896	-0.001504	0.002861
43454	14216236	-9.829140	-0.103551	-0.020272	-0.004616	-0.001737	-0.000975
43455	14216261	-9.824366	-0.066492	-0.019817	-0.008363	-0.003031	-0.002573
43456	14216286	-9.831715	-0.082072	-0.031780	-0.002800	-0.000542	-0.001551
43457	14216311	-9.834073	-0.084525	-0.030788	-0.006367	-0.001651	-0.007513
43458	14216336	-9.824425	-0.090879	-0.037059	-0.003809	-0.003074	0.000237
43459	14216361	-9.822303	-0.073954	-0.028973	-0.006407	-0.001775	-0.002320
43460	14216386	-9.827328	-0.091069	-0.029927	-0.007778	0.003052	-0.002414
43461	14216411	-9.846489	-0.085254	-0.022956	-0.009198	-0.009187	-0.003950
43462	14216436	-9.831226	-0.076125	-0.044697	-0.007498	-0.005914	0.001511
43463	14216461	-9.825299	-0.101087	-0.029392	-0.005354	-0.003181	-0.005986
43464	14216486	-9.825669	-0.101247	-0.046671	-0.004667	-0.000516	-0.003274
43465	14216511	-9.835516	-0.092861	-0.012079	-0.008005	-0.002122	-0.003536
43466	14216536	-9.831590	-0.090059	-0.034635	-0.004973	-0.002514	0.001332
43467	14216561	-9.815842	-0.094139	-0.032821	-0.006528	0.000046	0.000003
43468	14216586	-9.832686	-0.086051	-0.019325	-0.007281	-0.000036	0.002186
43469	14216611	-9.818480	-0.080196	-0.018883	-0.003776	-0.002441	-0.003803
43470	14216636	-9.809264	-0.129437	-0.024195	-0.005627	-0.000992	-0.008279
43471	14216661	-9.826982	-0.086493	-0.018868	-0.008544	-0.001164	-0.002952
43472	14216686	-9.814655	-0.117072	-0.023689	-0.007974	-0.003155	-0.001808
43473	14216711	-9.811253	-0.117313	-0.036234	-0.006987	0.002356	-0.001204
43474	14216736	-9.810591	-0.104371	-0.013150	-0.010103	-0.002478	-0.000386
43475	14216761	-9.856457	-0.090663	-0.018730	-0.002761	0.000298	-0.000650
43476	14216786	-9.829628	-0.092837	-0.038058	-0.005834	0.002380	-0.001588
43477	14216811	-9.837238	-0.098288	-0.030794	-0.006509	-0.002870	-0.003158
43478	14216836	-9.874646	-0.077431	-0.030102	-0.004087	-0.002639	-0.004311
43479	14216861	-9.830928	-0.108692	-0.028954	-0.002034	0.003541	-0.001594
43480	14216886	-9.830779	-0.081121	-0.030456	-0.009194	0.005683	-0.000730
43481	14216911	-9.816199	-0.124193	0.010318	-0.001822	0.001420	0.002176
43482	14216936	-9.817149	-0.098714	-0.042433	-0.004575	0.001447	0.006413
43483	14216961	-9.824586	-0.116019	-0.037561	-0.006688	0.001071	0.000270
43484	14216986	-9.825426	-0.109147	0.007526	-0.010821	-0.002237	-0.002114
43485	14217011	-9.824800	-0.109737	-0.014515	-0.002281	-0.002663	0.000294
43486	14217036	-9.827725	-0.098212	-0.027951	-0.003326	-0.002362	-0.003228
43487	14217061	-9.844864	-0.076582	0.002779	-0.003490	-0.000812	-0.001551
43488	14217086	-9.816130	-0.116693	-0.016525	-0.006799	0.000753	0.002702
43489	14217111	-9.849578	-0.077514	-0.001476	-0.010233	-0.002092	0.001283
43490	14217136	-9.816485	-0.087772	-0.018936	-0.005598	0.000893	-0.003336
43491	14217161	-9.836828	-0.061476	-0.018397	-0.004292	0.002015	-0.003392
43492	14217186	-9.811759	-0.091199	-0.005501	-0.004917	-0.000060	0.001793
43493	14217211	-9.845823	-0.077103	0.005136	-0.004785	0.001752	-0.000894
43494	14217236	-9.852785	-0.086040	-0.006248	-0.000827	-0.002383	-0.002465
43495	14217261	-9.817553	-0.077268	-0.021842	-0.008950	0.003941	-0.000869
43496	14217286	-9.836329	-0.062887	-0.017812	-0.008829	-0.004330	-0.001873
43497	14217311	-9.841913	-0.072422	-0.020202	-0.006792	-0.001904	-0.001548
43498	14217336	-9.859734	-0.093976	-0.020138	-0.003634	-0.000624	-0.003538
43499	14217361	-9.805977	-0.112307	-0.051541	-0.004123	-0.001213	-0.001484
43500	14217386	-9.844619	-0.094566	0.000929	-0.003077	-0.006294	-0.002542
43501	14217411	-9.822488	-0.104463	-0.016023	-0.000332	-0.001660	-0.000982
43502	14217436	-9.798265	-0.093085	-0.028008	-0.010714	-0.007659	-0.000544
43503	14217461	-9.842003	-0.096387	-0.033670	-0.010505	0.000358	-0.000758
43504	14217486	-9.832085	-0.090124	-0.033203	-0.005150	-0.001362	-0.002509
43505	14217511	-9.796810	-0.125067	-0.044921	-0.006261	0.001727	-0.000954
43506	14217536	-9.821383	-0.117353	-0.014133	-0.005053	0.003611	-0.006202
43507	14217561	-9.856097	-0.111280	-0.035460	-0.001103	-0.001881	-0.005984
43508	14217586	-9.834558	-0.093307	-0.011158	-0.005636	-0.002009	-0.000589
43509	14217611	-9.857189	-0.112566	-0.009595	-0.008632	-0.000381	-0.000371
43510	14217636	-9.857231	-0.095616	-0.035951	-0.001511	-0.002779	-0.001372
43511	14217661	-9.844769	-0.100586	-0.038897	-0.000846	-0.001734	-0.000601
43512	14217686	-9.839766	-0.091891	-0.018836	0.000857	0.001267	-0.003795
43513	14217711	-9.826493	-0.088314	-0.017920	-0.005688	0.002261	0.002004
43514	14217736	-9.842306	-0.078549	-0.019263	-0.003815	-0.002487	0.002807
43515	14217761	-9.855371	-0.091733	-0.039814	-0.008008	0.000076	-0.002491
43516	14217786	-9.810930	-0.106484	-0.032868	-0.009245	-0.001496	-0.001737
43517	14217811	-9.811378	-0.108833	-0.031879	-0.008747	-0.000966	-0.001541
43518	14217836	-9.820525	-0.088223	-0.057697	-0.007361	-0.002503	-0.005460
43519	14217861	-9.812045	-0.101963	-0.015626	-0.001521	0.001818	0.002046
43520	14217886	-9.836578	-0.086340	-0.006323	-0.004157	-0.002250	-0.002520
43521	14217911	-9.828538	-0.084355	-0.001577	-0.005116	-0.004262	0.000872
43522	14217936	-9.851752	-0.088327	-0.013457	-0.005843	0.000110	-0.005062
43523	14217961	-9.824763	-0.115542	-0.008759	-0.006361	-0.003578	-0.003096
43524	14217986	-9.817415	-0.085810	-0.026589	-0.002618	-0.002223	-0.002074
43525	14218011	-9.829741	-0.100003	-0.006872	-0.005864	0.000887	-0.003584
43526	14218036	-9.815132	-0.114629	-0.028531	-0.004573	0.003046	0.000334
43527	14218061	-9.828311	-0.094603	-0.016916	-0.009482	-0.003956	-0.002128
43528	14218086	-9.814143	-0.086367	-0.015548	-0.005621	-0.002597	-0.003415
43529	14218111	-9.833694	-0.084237	-0.015505	-0.003564	0.001514	-0.000384
43530	14218136	-9.857847	-0.079810	-0.046903	-0.001721	-0.006536	-0.003117
43531	14218161	-9.840477	-0.106383	-0.029800	-0.000450	-0.003983	-0.000034
43532	14218186	-9.841238	-0.083683	-0.027889	-0.003675	-0.001466	-0.004056
43533	14218211	-9.845299	-0.104637	-0.023624	-0.006996	0.002684	0.000657
43534	14218236	-9.847223	-0.100263	-0.030763	-0.004916	0.001948	0.000139
43535	14218261	-9.817718	-0.102967	-0.019347	-0.004360	-0.002256	-0.003155
43536	14218286	-9.825212	-0.075026	-0.017948	0.002114	-0.001869	0.001898
43537	14218311	-9.846084	-0.104272	-0.051815	-0.006150	-0.002222	-0.004114
43538	14218336	-9.829235	-0.109953	-0.069599	-0.006993	-0.006180	-0.005417
43539	14218361	-9.829998	-0.099401	-0.044219	-0.003472	-0.001784	-0.001873
43540	14218386	-9.818542	-0.113460	-0.017941	-0.003739	-0.001271	-0.002520
43541	14218411	-9.820305	-0.088877	-0.014628	-0.002469	0.001007	-0.004882
43542	14218436	-9.843445	-0.086638	-0.050345	-0.002919	-0.004739	0.001317
43543	14218461	-9.836538	-0.121639	-0.017360	-0.005344	-0.002837	0.003704
43544	14218486	-9.817429	-0.083288	-0.027543	-0.006096	-0.001040	0.004481
43545	14218511	-9.827799	-0.099822	-0.013621	0.001112	0.001533	-0.000331
43546	14218536	-9.830612	-0.085067	-0.050461	-0.003979	-0.001724	-0.001679
43547	14218561	-9.832705	-0.080196	-0.029409	-0.006393	-0.000280	0.000317
43548	14218586	-9.819407	-0.077689	-0.029485	-0.007673	0.003764	-0.002475
43549	14218611	-9.829968	-0.081452	-0.006926	-0.006844	0.002107	-0.000821
43550	14218636	-9.845541	-0.085708	-0.023630	-0.006925	0.004421	-0.003499
43551	14218661	-9.826565	-0.081723	-0.018407	-0.001355	0.000259	-0.001419
43552	14218686	-9.841824	-0.080007	-0.017840	-0.001684	-0.001228	0.000498
43553	14218711	-9.811438	-0.073445	-0.016533	-0.007968	-0.003016	0.001910
43554	14218736	-9.805316	-0.089025	-0.051060	-0.002933	-0.002609	-0.000986
43555	14218761	-9.829694	-0.094957	-0.024004	-0.008021	-0.007805	-0.000294
43556	14218786	-9.822194	-0.093779	-0.005934	-0.008695	-0.002851	-0.005971
43557	14218811	-9.823936	-0.068066	-0.007831	-0.003701	-0.002493	-0.001107
43558	14218836	-9.823966	-0.104667	-0.006430	-0.006115	-0.000858	-0.000523
43559	14218861	-9.827129	-0.114564	-0.014976	-0.001897	-0.003052	-0.004518
43560	14218886	-9.838015	-0.077531	-0.023601	-0.007147	0.001056	-0.003770
43561	14218911	-9.821950	-0.106872	-0.020271	-0.005654	-0.003962	-0.005856
43562	14218936	-9.813844	-0.100816	-0.035709	-0.004214	-0.000773	-0.007324
43563	14218961	-9.838573	-0.098603	-0.045168	-0.002408	-0.000991	-0.004573
43564	14218986	-9.817648	-0.093959	-0.049610	-0.000785	0.000529	-0.002126
43565	14219011	-9.830077	-0.095168	-0.038559	-0.010392	0.001144	0.004698
43566	14219036	-9.847067	-0.101396	-0.053297	-0.006509	0.003265	-0.004017
43567	14219061	-9.811680	-0.090070	-0.021812	-0.000250	-0.000632	-0.005412
43568	14219086	-9.848368	-0.086599	-0.026949	-0.005952	0.002186	0.001682
43569	14219111	-9.838653	-0.110011	-0.008730	-0.002581	0.000629	-0.001411
43570	14219136	-9.832454	-0.107443	-0.015948	-0.003321	-0.000358	-0.001672
43571	14219161	-9.815330	-0.111252	-0.004065	-0.006193	-0.000542	-0.002442
43572	14219186	-9.850359	-0.093215	0.000428	-0.005817	-0.002207	-0.000717
43573	14219211	-9.836812	-0.098883	-0.018824	-0.005285	-0.000511	0.003651
43574	14219236	-9.846508	-0.097011	0.004265	-0.006682	-0.000930	0.000066
43575	14219261	-9.831989	-0.108427	-0.009711	0.000279	-0.002611	0.001706
43576	14219286	-9.824522	-0.095003	-0.012635	-0.003098	-0.000800	0.003198
43577	14219311	-9.819935	-0.111436	-0.027489	-0.005215	-0.003497	-0.003612
43578	14219336	-9.808313	-0.095329	-0.015080	-0.006996	-0.003718	-0.002839
43579	14219361	-9.819073	-0.094439	-0.047639	-0.004096	-0.002110	-0.000335
43580	14219386	-9.837888	-0.087582	-0.022629	-0.003256	-0.002821	-0.007010
43581	14219411	-9.823286	-0.071575	-0.030360	-0.004542	-0.002322	-0.003478
43582	14219436	-9.814363	-0.101874	-0.025158	-0.009818	-0.001375	-0.002372
43583	14219461	-9.812427	-0.101314	-0.030880	-0.009675	-0.002091	-0.002374
43584	14219486	-9.833908	-0.098228	-0.028947	-0.000408	0.000855	-0.000712
43585	14219511	-9.842080	-0.097598	-0.018329	-0.000226	-0.000957	-0.002711
43586	14219536	-9.830177	-0.089535	-0.035653	-0.010580	0.002946	0.000800
43587	14219561	-9.819335	-0.123745	-0.024649	-0.004883	-0.001411	-0.000015
43588	14219586	-9.823871	-0.101451	-0.027495	-0.002505	-0.001757	0.000301
43589	14219611	-9.833372	-0.090223	-0.055251	-0.002028	-0.000590	0.000246
43590	14219636	-9.863734	-0.077363	-0.023001	-0.005960	-0.001755	-0.001290
43591	14219661	-9.819770	-0.078393	-0.046267	-0.007401	0.001247	-0.001274
43592	14219686	-9.831577	-0.100751	-0.017467	-0.005613	0.003679	-0.001261
43593	14219711	-9.849233	-0.091270	-0.030798	-0.003076	0.006765	0.002018
43594	14219736	-9.832268	-0.109945	-0.040380	0.000875	-0.001779	-0.004068
43595	14219761	-9.814058	-0.121213	-0.034706	-0.007324	-0.003794	-0.005661
43596	14219786	-9.842073	-0.092662	-0.029248	-0.004481	-0.005868	0.001185
43597	14219811	-9.849411	-0.077125	-0.029822	-0.000510	0.002016	-0.003020
43598	14219836	-9.820944	-0.118812	-0.004551	-0.005394	0.002974	0.000656
43599	14219861	-9.817831	-0.095971	-0.028911	-0.007443	-0.000188	-0.008331
43600	14219886	-9.836542	-0.094053	-0.019216	-0.005132	0.000188	-0.003015
43601	14219911	-9.828742	-0.106665	-0.020673	-0.005506	-0.001681	0.002812
43602	14219936	-9.825123	-0.119162	-0.043195	-0.007622	-0.001793	-0.000520
43603	14219961	-9.835493	-0.098693	-0.024494	-0.005634	0.000057	-0.001220
43604	14219986	-9.838247	-0.104802	-0.029252	-0.003196	-0.000094	-0.001414
43605	14220011	-9.831307	-0.099414	-0.007224	-0.004989	-0.002463	-0.004824
43606	14220036	-9.803759	-0.095336	-0.003054	-0.002550	-0.000675	-0.004564
43607	14220061	-9.813433	-0.108816	-0.028394	-0.006390	-0.002810	-0.004953
43608	14220086	-9.834987	-0.082654	0.014879	-0.009647	-0.002342	0.000961
43609	14220111	-9.825039	-0.098595	-0.020226	-0.006492	-0.000928	0.001790
43610	14220136	-9.814983	-0.096305	-0.034247	-0.006768	0.003986	0.002587
43611	14220161	-9.852690	-0.072785	0.009627	-0.003822	-0.000294	0.002368
43612	14220186	-9.814857	-0.111252	-0.026965	0.001322	-0.001445	-0.003877
43613	14220211	-9.827100	-0.088346	-0.015391	-0.004143	-0.002900	-0.005086
43614	14220236	-9.847379	-0.098248	-0.028696	-0.004901	-0.003098	-0.001042
43615	14220261	-9.833620	-0.093875	-0.029731	-0.006206	-0.002487	-0.004052
43616	14220286	-9.831887	-0.108216	-0.049450	-0.007030	0.001711	-0.000182
43617	14220311	-9.838139	-0.101107	-0.056196	-0.011036	0.006935	-0.001745
43618	14220336	-9.823821	-0.088889	-0.006306	-0.009902	-0.001065	-0.004868
43619	14220361	-9.843355	-0.087175	-0.010060	-0.007066	-0.001332	-0.003274
43620	14220386	-9.848028	-0.079149	-0.040719	-0.011413	0.000270	-0.003698
43621	14220411	-9.816265	-0.100493	-0.048944	-0.002670	-0.007203	-0.005114
43622	14220436	-9.848923	-0.086362	-0.035425	-0.001512	-0.002846	-0.001499
43623	14220461	-9.842966	-0.112587	-0.022071	-0.004312	0.002594	-0.003643
43624	14220486	-9.840149	-0.103338	-0.033116	-0.005843	0.000636	-0.000574
43625	14220511	-9.861009	-0.112734	-0.029584	-0.004837	-0.003365	-0.004506
43626	14220536	-9.823561	-0.119309	-0.063875	0.000146	0.003517	-0.001153
43627	14220561	-9.839397	-0.087222	-0.031688	-0.004293	0.002211	-0.002043
43628	14220586	-9.833002	-0.103232	-0.034553	-0.005230	-0.000516	-0.000134
43629	14220611	-9.855622	-0.084540	-0.032525	-0.012450	-0.000899	0.000590
43630	14220636	-9.866714	-0.047595	-0.008025	-0.011840	-0.002126	-0.000761
43631	14220661	-9.843546	-0.096733	-0.034971	-0.009139	-0.002466	-0.000069
43632	14220686	-9.855736	-0.077048	-0.029118	-0.005476	-0.004853	0.000104
43633	14220711	-9.840338	-0.096023	-0.017773	-0.002375	0.002106	-0.004360
43634	14220736	-9.819738	-0.103781	-0.019782	-0.003023	0.000420	-0.003538
43635	14220761	-9.831720	-0.089904	-0.036522	-0.004974	0.001486	0.000133
43636	14220786	-9.814668	-0.104638	0.007487	-0.007132	0.002803	-0.001521
43637	14220811	-9.840822	-0.094064	-0.020126	-0.005043	-0.000389	-0.000319
43638	14220836	-9.837442	-0.091994	-0.030199	-0.005782	-0.003313	-0.000274
43639	14220861	-9.828835	-0.102148	-0.015860	-0.006907	-0.002757	-0.006230
43640	14220886	-9.829407	-0.099844	-0.007768	-0.001124	0.001031	-0.004371
43641	14220911	-9.851712	-0.093093	-0.031601	-0.005580	0.000380	-0.001346
43642	14220936	-9.826897	-0.098588	-0.027850	-0.003764	-0.002825	-0.003742
43643	14220961	-9.832369	-0.101201	0.013925	-0.005838	-0.006424	-0.008179
43644	14220986	-9.822023	-0.083715	-0.000578	-0.006005	-0.000538	-0.002694
43645	14221011	-9.844023	-0.070005	-0.012939	-0.006396	-0.000083	0.000006
43646	14221036	-9.843927	-0.085484	0.003788	-0.005928	0.003211	-0.001648
43647	14221061	-9.826957	-0.098175	-0.020244	-0.005455	0.002444	-0.003900
43648	14221086	-9.805738	-0.106530	-0.045211	-0.001782	-0.002396	-0.000666
43649	14221111	-9.834308	-0.109308	-0.041232	-0.004114	0.000599	-0.001664
43650	14221136	-9.822029	-0.110893	-0.018759	-0.010026	-0.002730	0.001729
43651	14221161	-9.831627	-0.105295	-0.019180	-0.002912	-0.002734	0.002997
43652	14221186	-9.822323	-0.088095	-0.018811	-0.008631	0.000140	0.004624
43653	14221211	-9.815699	-0.103632	-0.057691	-0.008650	0.000131	-0.002366
43654	14221236	-9.827477	-0.074790	-0.060941	-0.007486	-0.000499	-0.003137
43655	14221261	-9.850198	-0.096261	-0.039732	-0.011122	-0.002563	-0.000513
43656	14221286	-9.836203	-0.070827	-0.043193	-0.003523	0.000358	0.003201
43657	14221311	-9.831028	-0.100143	-0.052315	-0.005466	-0.001499	-0.004436
43658	14221336	-9.809965	-0.121123	-0.027031	-0.001244	0.002903	-0.001478
43659	14221361	-9.829495	-0.109656	-0.048997	-0.005463	0.002441	-0.005890
43660	14221386	-9.824634	-0.086051	-0.035514	-0.003904	-0.001919	0.000496
43661	14221411	-9.842515	-0.067361	-0.030184	-0.006896	-0.004880	-0.002521
43662	14221436	-9.813822	-0.083832	-0.016419	-0.003651	-0.002046	-0.001365
43663	14221461	-9.832441	-0.078346	-0.020203	-0.006942	0.000802	-0.002491
43664	14221486	-9.827089	-0.095625	-0.002877	-0.003333	-0.004238	-0.002722
43665	14221511	-9.800493	-0.080771	-0.022306	-0.007458	0.000988	-0.002947
43666	14221536	-9.823191	-0.096262	-0.016904	-0.006697	0.001395	-0.001726
43667	14221561	-9.820711	-0.096924	-0.031222	-0.002593	-0.002664	0.002864
43668	14221586	-9.826820	-0.110120	-0.016831	-0.006264	-0.002548	-0.002708
43669	14221611	-9.871030	-0.078802	-0.018127	-0.007348	0.003837	-0.001638
43670	14221636	-9.833770	-0.102085	0.009582	-0.008021	-0.005808	-0.004131
43671	14221661	-9.813684	-0.061227	-0.007330	-0.006135	-0.002544	-0.002708
43672	14221686	-9.829884	-0.096440	-0.012080	-0.003126	0.001578	-0.004104
43673	14221711	-9.832994	-0.104707	-0.033068	-0.007282	-0.004956	-0.003870
43674	14221736	-9.810394	-0.093816	-0.009662	-0.006756	-0.006878	0.001504
43675	14221761	-9.829850	-0.089403	-0.032210	-0.005193	0.000921	0.007440
43676	14221786	-9.832835	-0.096670	0.003248	-0.006798	0.002623	-0.000112
43677	14221811	-9.824217	-0.094988	-0.008265	-0.006327	0.001787	0.000139
43678	14221836	-9.826326	-0.109008	-0.024063	-0.007476	0.001641	-0.000882
43679	14221861	-9.836424	-0.105982	-0.012963	-0.005457	-0.001559	-0.000462
43680	14221886	-9.825820	-0.108464	-0.029759	-0.009266	-0.004795	-0.001301
43681	14221911	-9.862555	-0.108646	-0.017569	-0.005694	-0.004283	-0.001879
43682	14221936	-9.798777	-0.141447	-0.022693	-0.003387	-0.004368	-0.001188
43683	14221961	-9.817825	-0.103223	-0.023584	-0.003523	-0.002302	-0.002906
43684	14221986	-9.835381	-0.096385	-0.047950	-0.005472	-0.001101	0.000767
43685	14222011	-9.831238	-0.094758	-0.027913	-0.000015	0.002673	0.001030
43686	14222036	-9.850301	-0.090092	-0.034484	-0.004847	-0.000177	0.004612
43687	14222061	-9.825139	-0.129976	-0.019272	-0.007790	0.001174	-0.004475
43688	14222086	-9.835297	-0.114294	-0.025949	-0.003456	0.000092	-0.000840
43689	14222111	-9.818858	-0.096626	-0.022096	-0.005282	-0.007051	-0.000297
43690	14222136	-9.823275	-0.087702	-0.020728	-0.007740	-0.000182	-0.001477
43691	14222161	-9.810954	-0.115395	-0.030839	-0.007688	-0.002052	-0.002450
43692	14222186	-9.836358	-0.098938	-0.038782	-0.003131	-0.004490	-0.000989
43693	14222211	-9.839308	-0.093390	-0.034052	-0.002208	-0.000986	-0.002003
43694	14222236	-9.821916	-0.088753	-0.007327	-0.002837	0.001012	-0.000070
43695	14222261	-9.831922	-0.112274	-0.035036	-0.003281	-0.001718	-0.003290
43696	14222286	-9.832180	-0.092329	-0.033555	-0.002317	-0.003506	0.000422
43697	14222311	-9.841603	-0.105391	-0.024428	-0.010660	-0.002941	0.000766
43698	14222336	-9.822952	-0.087101	0.003234	-0.003220	0.000805	-0.001223
43699	14222361	-9.805610	-0.114500	-0.049045	-0.001457	-0.002131	0.002919
43700	14222386	-9.835071	-0.085152	-0.043159	-0.006065	-0.000800	-0.003466
43701	14222411	-9.839087	-0.083707	-0.011034	-0.005445	-0.001681	0.002238
43702	14222436	-9.843552	-0.087145	0.023518	-0.007008	-0.002874	0.001849
43703	14222461	-9.811586	-0.110414	-0.015450	-0.003767	-0.002438	-0.001815
43704	14222486	-9.804195	-0.080031	-0.040922	-0.004511	0.000843	-0.001472
43705	14222511	-9.827588	-0.089313	-0.013983	-0.003581	-0.000302	-0.003470
43706	14222536	-9.808207	-0.105824	-0.032732	-0.004403	-0.002576	-0.001815
43707	14222561	-9.823630	-0.099695	-0.015368	-0.004452	-0.005557	-0.006317
43708	14222586	-9.826218	-0.089951	-0.001966	-0.005765	-0.002283	-0.005403
43709	14222611	-9.829330	-0.095236	-0.027846	-0.005646	-0.001822	-0.001228
43710	14222636	-9.848624	-0.082399	-0.014356	-0.004490	0.002269	-0.002231
43711	14222661	-9.832881	-0.095928	0.009472	-0.007540	0.003307	-0.006329
43712	14222686	-9.857673	-0.085908	-0.006655	-0.005935	-0.000399	0.000963
43713	14222711	-9.812427	-0.119858	-0.015003	-0.004767	-0.000767	0.002237
43714	14222736	-9.819735	-0.105745	-0.016891	-0.003938	-0.000826	-0.001229
43715	14222761	-9.826253	-0.089527	0.002290	0.000384	0.001895	-0.003663
43716	14222786	-9.838460	-0.094126	-0.015836	-0.001174	-0.001748	-0.005026
43717	14222811	-9.813892	-0.111647	-0.026068	-0.005397	0.002970	0.001617
43718	14222836	-9.822411	-0.116963	-0.025047	-0.007387	0.000934	0.000201
43719	14222861	-9.854645	-0.093281	-0.019176	-0.004877	0.002660	0.002193
43720	14222886	-9.845252	-0.109389	-0.042679	-0.003476	0.003205	0.004244
43721	14222911	-9.846169	-0.115681	-0.035859	-0.004324	-0.005083	0.000931
43722	14222936	-9.818048	-0.113352	-0.043739	-0.006028	0.000238	0.000641
43723	14222961	-9.840894	-0.090308	-0.015354	-0.006185	-0.002728	0.001653
43724	14222986	-9.840113	-0.078544	-0.011005	-0.003983	-0.003347	0.000107
43725	14223011	-9.824989	-0.113154	-0.000548	0.000653	-0.004616	-0.002673
43726	14223036	-9.841746	-0.092513	-0.027824	-0.006677	0.000687	0.000457
43727	14223061	-9.850043	-0.111060	-0.034536	-0.002895	0.004624	-0.000431
43728	14223086	-9.828615	-0.116150	-0.023073	-0.009215	0.002059	0.000538
43729	14223111	-9.825438	-0.081984	0.009999	-0.009789	-0.002410	-0.001347
43730	14223136	-9.838163	-0.087677	0.000955	-0.004867	-0.001803	0.002229
43731	14223161	-9.851520	-0.076174	-0.022007	-0.011605	0.000198	-0.005560
43732	14223186	-9.826714	-0.081161	-0.016863	-0.004704	-0.001225	-0.003281
43733	14223211	-9.831106	-0.074628	-0.013014	-0.002982	-0.000674	-0.000140
43734	14223236	-9.847015	-0.064531	-0.001935	-0.002351	0.001596	-0.003272
43735	14223261	-9.805745	-0.081296	-0.019380	-0.001937	0.000568	-0.001997
43736	14223286	-9.825307	-0.085153	-0.004854	-0.003812	-0.001150	-0.003475
43737	14223311	-9.840547	-0.080422	-0.015406	-0.003202	0.002094	-0.004038
43738	14223336	-9.829987	-0.086402	-0.015431	-0.002755	0.002371	-0.000700
43739	14223361	-9.820467	-0.078456	-0.031671	-0.007263	-0.003335	-0.001678
43740	14223386	-9.826099	-0.094476	-0.013000	-0.003596	-0.003919	-0.002530
43741	14223411	-9.833954	-0.079070	-0.005799	-0.006065	-0.000803	-0.005777
43742	14223436	-9.838515	-0.083025	-0.029248	-0.006917	-0.001979	-0.002253
43743	14223461	-9.835029	-0.102115	-0.014868	-0.004575	-0.003089	0.000943
43744	14223486	-9.839068	-0.090061	-0.003417	-0.004916	0.001483	-0.004292
43745	14223511	-9.816544	-0.094332	-0.017348	-0.009540	-0.002414	-0.003721
43746	14223536	-9.855228	-0.075480	-0.037379	-0.005345	0.001226	-0.001083
43747	14223561	-9.821206	-0.083300	-0.054735	-0.009660	-0.002272	0.000316
43748	14223586	-9.824942	-0.094952	-0.045150	-0.006680	0.000416	-0.004224
43749	14223611	-9.864884	-0.063662	-0.041159	-0.001420	0.002715	0.001034
43750	14223636	-9.841204	-0.093873	-0.033532	-0.006719	-0.001839	0.001599
43751	14223661	-9.822660	-0.087796	-0.043284	-0.005306	0.001867	-0.002879
43752	14223686	-9.836590	-0.124780	-0.025452	-0.005488	-0.000525	0.000313
43753	14223711	-9.866953	-0.098628	-0.019986	-0.004856	-0.002187	0.001658
43754	14223736	-9.830915	-0.110082	-0.048447	-0.005235	-0.002453	0.001012
43755	14223761	-9.819233	-0.098786	-0.035571	-0.007364	-0.002046	-0.001357
43756	14223786	-9.839135	-0.108052	-0.033612	-0.003828	0.004098	0.002134
43757	14223811	-9.856945	-0.094615	-0.030093	-0.005013	-0.003749	-0.003096
43758	14223836	-9.841615	-0.068939	-0.019624	0.001891	-0.005241	-0.001457
43759	14223861	-9.805078	-0.098449	-0.014526	-0.004749	-0.005874	-0.001450
43760	14223886	-9.828787	-0.099495	-0.029800	-0.004986	-0.000392	-0.003278
43761	14223911	-9.845964	-0.097360	-0.029672	-0.007151	-0.001016	-0.005192
43762	14223936	-9.845084	-0.088695	-0.033499	-0.007483	-0.002433	-0.001869
43763	14223961	-9.844565	-0.082712	-0.053670	-0.004521	0.001235	-0.001661
43764	14223986	-9.853477	-0.104477	-0.030571	-0.001241	-0.003420	-0.000797
43765	14224011	-9.812075	-0.097112	-0.041850	-0.002986	-0.000212	0.002491
43766	14224036	-9.807337	-0.097693	-0.036589	-0.004549	-0.002067	-0.002009
43767	14224061	-9.827357	-0.069834	-0.010626	-0.002232	-0.000076	0.001656
43768	14224086	-9.834850	-0.082326	-0.008220	-0.007062	0.000674	-0.002176
43769	14224111	-9.819883	-0.082113	-0.039799	-0.010343	-0.007331	-0.001566
43770	14224136	-9.848553	-0.075887	-0.038303	-0.005804	-0.002927	-0.002387
43771	14224161	-9.868388	-0.097274	-0.022852	0.000411	-0.003149	-0.005031
43772	14224186	-9.846645	-0.086081	-0.017270	-0.000359	-0.000624	-0.000466
43773	14224211	-9.867549	-0.082797	-0.032422	-0.008014	-0.001407	0.001417
43774	14224236	-9.826553	-0.091022	-0.022622	-0.006968	-0.000232	-0.001223
43775	14224261	-9.801304	-0.082829	-0.041927	-0.006242	0.000945	-0.001597
43776	14224286	-9.828216	-0.098215	-0.048016	-0.009653	-0.000402	0.000264
43777	14224311	-9.813605	-0.106297	-0.007883	-0.005703	0.004183	-0.003570
43778	14224336	-9.841967	-0.075996	-0.024424	-0.003304	-0.002751	-0.000726
43779	14224361	-9.842414	-0.087181	-0.008114	-0.007205	-0.005086	-0.002331
43780	14224386	-9.848613	-0.085796	-0.009528	-0.001699	-0.003041	-0.001499
43781	14224411	-9.849745	-0.075520	0.001427	-0.004736	0.002268	0.000204
43782	14224436	-9.828405	-0.093336	-0.025942	-0.004886	-0.001679	-0.003216
43783	14224461	-9.821737	-0.095241	-0.021175	-0.008921	-0.003108	0.001016
43784	14224486	-9.845961	-0.071618	-0.004319	-0.005050	-0.000133	-0.000839
43785	14224511	-9.813730	-0.095869	-0.005365	-0.003837	-0.004634	-0.003944
43786	14224536	-9.814517	-0.108175	-0.008243	-0.004305	-0.003934	-0.003104
43787	14224561	-9.831953	-0.107899	-0.038384	-0.008003	0.000079	-0.000630
43788	14224586	-9.810214	-0.102202	-0.023161	-0.005451	0.000119	-0.003077
43789	14224611	-9.812178	-0.093993	-0.029384	-0.009212	-0.002070	0.003266
43790	14224636	-9.803748	-0.084516	-0.025059	-0.004317	-0.005096	0.000353
43791	14224661	-9.829974	-0.085453	-0.020132	-0.002396	-0.005457	-0.003055
43792	14224686	-9.825230	-0.086850	-0.014002	-0.004593	-0.000510	-0.002193
43793	14224711	-9.848589	-0.079877	-0.023383	-0.007020	-0.006820	-0.000033
43794	14224736	-9.819460	-0.089620	-0.016967	-0.005294	0.003478	-0.002615
43795	14224761	-9.837561	-0.083521	-0.028277	-0.004657	-0.002910	-0.005211
43796	14224786	-9.832746	-0.051660	-0.025003	-0.003280	0.000677	-0.000264
43797	14224811	-9.827095	-0.090205	-0.014405	-0.011346	-0.003801	-0.001931
43798	14224836	-9.826207	-0.089874	-0.003930	-0.004210	-0.000441	-0.002511
43799	14224861	-9.849268	-0.097300	-0.033500	-0.003584	-0.002109	-0.002004
43800	14224886	-9.851019	-0.070328	-0.036416	-0.005580	0.003985	-0.006835
43801	14224911	-9.823185	-0.087909	-0.034591	-0.009370	-0.001429	-0.000703
43802	14224936	-9.834785	-0.106367	-0.046964	-0.004783	-0.004582	0.001320
43803	14224961	-9.825967	-0.103991	-0.013485	-0.002073	-0.001378	-0.003606
43804	14224986	-9.822596	-0.104318	-0.019707	-0.010149	-0.003196	-0.002126
43805	14225011	-9.835201	-0.084422	-0.023548	-0.005436	-0.002073	0.000051
43806	14225036	-9.842443	-0.081343	-0.013906	-0.006448	-0.000536	0.000450
43807	14225061	-9.829891	-0.086170	-0.032610	-0.003409	-0.003660	-0.001436
43808	14225086	-9.826612	-0.080418	-0.034090	-0.003277	-0.003593	-0.000730
43809	14225111	-9.804485	-0.105504	-0.020334	-0.002503	0.000104	-0.004056
43810	14225136	-9.821224	-0.066004	-0.010641	-0.008301	-0.000969	-0.003333
43811	14225161	-9.799595	-0.115358	-0.018420	-0.003268	-0.001638	0.004150
43812	14225186	-9.815377	-0.072901	-0.018838	-0.002404	-0.002801	-0.000414
43813	14225211	-9.837770	-0.069339	-0.022989	-0.002308	-0.004154	-0.003178
43814	14225236	-9.834761	-0.078150	-0.029265	-0.006747	-0.003253	0.001334
43815	14225261	-9.840292	-0.090033	-0.036411	-0.005202	-0.001818	-0.002697
43816	14225286	-9.814864	-0.074280	-0.022715	-0.004882	0.002389	-0.003453
43817	14225311	-9.810835	-0.102532	0.000390	-0.002596	-0.004995	-0.000229
43818	14225336	-9.845198	-0.094812	-0.002839	-0.003451	-0.001901	0.002228
43819	14225361	-9.844196	-0.087895	-0.024885	-0.007415	-0.002502	-0.001806
43820	14225386	-9.840250	-0.101171	-0.022482	-0.004415	-0.006393	-0.002342
43821	14225411	-9.831518	-0.111446	-0.024944	-0.006463	-0.002289	-0.002579
43822	14225436	-9.835649	-0.085358	-0.027358	-0.004315	-0.003222	-0.001626
43823	14225461	-9.830356	-0.095929	-0.012509	-0.003843	-0.001588	0.002109
43824	14225486	-9.824663	-0.088078	-0.026453	-0.003815	0.001185	-0.001474
43825	14225511	-9.820758	-0.104468	-0.009158	-0.001916	-0.004539	-0.004587
43826	14225536	-9.833132	-0.098268	-0.022109	-0.002672	0.001264	-0.003082
43827	14225561	-9.821993	-0.110811	-0.026920	-0.008075	-0.001925	-0.000514
43828	14225586	-9.846908	-0.091897	-0.041732	-0.005278	0.003231	0.000273
43829	14225611	-9.834928	-0.107261	-0.021542	-0.008808	-0.004911	0.000368
43830	14225636	-9.824059	-0.105954	-0.009158	-0.008616	-0.003368	-0.006104
43831	14225661	-9.814512	-0.099769	-0.026055	-0.007482	-0.000228	0.002053
43832	14225686	-9.829336	-0.098157	-0.019254	-0.004925	0.000009	0.002177
43833	14225711	-9.849435	-0.084018	-0.033066	-0.005135	0.000580	0.000003
43834	14225736	-9.827018	-0.088030	-0.030304	-0.008881	-0.000517	0.000453
43835	14225761	-9.839034	-0.109779	-0.046030	-0.000672	0.000846	-0.002638
43836	14225786	-9.833734	-0.087775	-0.024055	-0.008373	0.001553	-0.003451
43837	14225811	-9.837954	-0.098463	-0.013015	-0.005223	0.005159	-0.004461
43838	14225836	-9.838760	-0.103477	-0.025855	-0.007705	-0.003541	-0.002836
43839	14225861	-9.833294	-0.087833	-0.017811	-0.003959	0.001962	-0.000699
43840	14225886	-9.840934	-0.103432	-0.060396	-0.003590	-0.000107	-0.002952
43841	14225911	-9.820580	-0.071899	-0.024998	-0.002019	-0.002919	0.000809
43842	14225936	-9.811932	-0.087240	-0.007823	0.003110	-0.001089	-0.001568
43843	14225961	-9.846842	-0.099024	-0.037838	-0.000466	-0.000951	0.002548
43844	14225986	-9.846854	-0.062633	-0.031096	-0.003266	-0.003904	0.000939
43845	14226011	-9.841639	-0.067995	-0.016269	-0.005651	-0.003299	0.002998
43846	14226036	-9.854489	-0.074543	-0.003743	-0.004713	-0.002447	0.002104
43847	14226061	-9.832829	-0.089828	-0.011085	-0.000145	0.000671	-0.000393
43848	14226086	-9.836147	-0.090884	-0.011518	-0.005446	-0.002146	-0.004312
43849	14226111	-9.829288	-0.072340	-0.003394	-0.002155	-0.003053	-0.003552
43850	14226136	-9.842467	-0.075073	-0.021139	-0.006083	0.000310	0.002630
43851	14226161	-9.827667	-0.087497	-0.003006	-0.007163	0.004363	0.002271
43852	14226186	-9.815300	-0.072747	-0.031264	-0.001864	-0.004090	-0.003880
43853	14226211	-9.822202	-0.074366	0.010447	-0.004724	-0.000446	-0.002310
43854	14226236	-9.851914	-0.092537	-0.000943	-0.004652	0.001957	0.002125
43855	14226261	-9.841496	-0.074020	-0.027820	-0.005303	0.000063	0.002755
43856	14226286	-9.832870	-0.080611	-0.023541	-0.001359	0.000581	-0.001033
43857	14226311	-9.807074	-0.086968	-0.022756	-0.010408	0.001323	-0.000948
43858	14226336	-9.839110	-0.092608	0.008102	-0.003424	-0.001077	-0.003412
43859	14226361	-9.857540	-0.094939	-0.009458	-0.004958	-0.003494	-0.003417
43860	14226386	-9.816885	-0.097830	-0.030802	-0.004438	-0.001340	0.001912
43861	14226411	-9.836745	-0.109010	-0.032122	-0.008014	-0.001277	0.002183
43862	14226436	-9.859103	-0.079610	-0.018622	-0.006194	-0.000732	-0.003722
43863	14226461	-9.845734	-0.117762	-0.024900	-0.004020	-0.000171	0.001410
43864	14226486	-9.832037	-0.141628	-0.034509	-0.005980	-0.000918	0.001606
43865	14226511	-9.853999	-0.115379	-0.003774	-0.007525	-0.001016	-0.003015
43866	14226536	-9.818838	-0.116382	-0.065284	-0.006895	-0.001074	-0.003849
43867	14226561	-9.859342	-0.092726	-0.031989	-0.003551	-0.003208	-0.002393
43868	14226586	-9.837602	-0.111275	-0.044599	-0.005031	-0.001173	-0.006296
43869	14226611	-9.824209	-0.119782	-0.036003	-0.005823	-0.004610	-0.005606
43870	14226636	-9.824924	-0.062874	-0.035550	-0.003375	-0.001147	-0.007641
43871	14226661	-9.827053	-0.081285	-0.037963	-0.002691	0.000240	0.002103
43872	14226686	-9.843159	-0.062414	-0.014401	-0.008525	0.002392	-0.002030
43873	14226711	-9.836472	-0.087989	-0.041738	-0.005707	-0.001629	-0.000523
43874	14226736	-9.822523	-0.079860	-0.004350	-0.005837	-0.003509	-0.000083
43875	14226761	-9.821534	-0.087628	0.006605	-0.003025	0.000420	-0.002056
43876	14226786	-9.828812	-0.065042	-0.018291	-0.004871	0.000133	-0.002247
43877	14226811	-9.813331	-0.080370	-0.026991	-0.006029	0.000039	-0.004104
43878	14226836	-9.819889	-0.088953	-0.025073	-0.002940	0.000110	0.002944
43879	14226861	-9.802419	-0.117283	-0.020792	-0.008059	-0.002438	0.000501
43880	14226886	-9.806286	-0.113581	-0.020829	-0.004485	0.002007	-0.002629
43881	14226911	-9.835654	-0.096649	-0.002904	-0.007990	-0.002444	-0.000972
43882	14226936	-9.829510	-0.093780	-0.001016	-0.005126	-0.001881	-0.001617
43883	14226961	-9.841288	-0.092127	-0.025374	-0.006755	-0.003199	-0.002772
43884	14226986	-9.824584	-0.101138	-0.012523	-0.007172	-0.002240	-0.003920
43885	14227011	-9.811359	-0.083595	-0.031312	-0.001390	-0.000654	-0.002904
43886	14227036	-9.828542	-0.090306	-0.011072	-0.002347	-0.000861	-0.003605
43887	14227061	-9.845243	-0.079344	-0.028284	-0.004885	0.000252	-0.005259
43888	14227086	-9.841747	-0.099828	-0.011027	-0.005919	-0.000523	0.004043
43889	14227111	-9.872013	-0.072080	-0.026231	-0.007673	-0.000112	0.000456
43890	14227136	-9.829134	-0.076903	-0.018818	-0.009942	0.002626	-0.002480
43891	14227161	-9.816591	-0.103263	0.008477	-0.005016	0.000378	-0.005262
43892	14227186	-9.822915	-0.112717	-0.028333	-0.004473	-0.000641	-0.003339
43893	14227211	-9.841710	-0.102752	-0.012405	-0.005063	-0.006074	-0.001700
43894	14227236	-9.813998	-0.101189	-0.029857	-0.003047	-0.000943	-0.003350
43895	14227261	-9.846399	-0.101700	-0.026800	-0.003946	-0.001420	-0.008604
43896	14227286	-9.849380	-0.084895	-0.041234	-0.006260	0.001393	-0.004610
43897	14227311	-9.812773	-0.123432	-0.029384	-0.007810	0.000343	0.002061
43898	14227336	-9.829164	-0.105569	-0.034132	-0.006589	0.000039	-0.000900
43899	14227361	-9.846192	-0.087159	-0.010504	-0.008699	-0.004135	0.000757
43900	14227386	-9.814064	-0.102811	-0.016385	-0.011759	-0.003032	-0.003143
43901	14227411	-9.833985	-0.105309	-0.025000	-0.006087	0.002177	-0.002682
43902	14227436	-9.835024	-0.088413	-0.045536	-0.004269	-0.006902	-0.002028
43903	14227461	-9.822214	-0.100068	-0.014004	-0.007924	-0.000437	0.000066
43904	14227486	-9.828017	-0.121726	-0.032192	-0.003900	-0.002505	-0.003932
43905	14227511	-9.808010	-0.121466	-0.032722	-0.002597	-0.002737	0.000106
43906	14227536	-9.836912	-0.105989	-0.012425	-0.003539	-0.003788	-0.002657
43907	14227561	-9.827370	-0.098045	-0.030791	-0.004175	0.000398	-0.001292
43908	14227586	-9.814547	-0.102856	-0.014540	-0.007038	0.001706	-0.003256
43909	14227611	-9.838259	-0.114131	-0.008140	-0.006799	-0.003324	0.002420
43910	14227636	-9.819948	-0.100333	0.006186	-0.006568	-0.004868	0.000937
43911	14227661	-9.825224	-0.094646	0.001376	-0.004150	-0.002176	0.001204
43912	14227686	-9.825152	-0.103809	0.008585	-0.004603	-0.004259	-0.000538
43913	14227711	-9.836721	-0.080324	-0.015816	-0.007673	-0.004050	0.001910
43914	14227736	-9.854084	-0.064449	-0.014321	-0.008665	-0.001356	-0.001153
43915	14227761	-9.837066	-0.089366	-0.020142	-0.006714	-0.000951	-0.008270
43916	14227786	-9.833563	-0.102042	-0.021120	-0.001514	-0.002587	0.000297
43917	14227811	-9.832851	-0.098750	0.009997	0.001794	0.001922	-0.004503
43918	14227836	-9.840816	-0.092063	-0.025448	-0.008026	0.000989	0.000332
43919	14227861	-9.830832	-0.098899	-0.007215	0.001867	-0.002533	-0.002795
43920	14227886	-9.830702	-0.103946	-0.019210	-0.008072	-0.000124	-0.002238
43921	14227911	-9.862316	-0.090088	-0.018583	-0.003068	-0.000097	-0.000323
43922	14227936	-9.861904	-0.078032	-0.031521	-0.004536	-0.002380	-0.000656
43923	14227961	-9.843027	-0.073845	-0.010973	0.000295	-0.003399	-0.003178
43924	14227986	-9.841328	-0.098095	-0.008077	-0.002949	-0.006302	-0.004528
43925	14228011	-9.809261	-0.110958	-0.005429	-0.006916	-0.000098	-0.001854
43926	14228036	-9.843617	-0.101283	-0.014356	-0.003140	-0.001839	0.001076
43927	14228061	-9.839476	-0.086904	-0.022071	-0.007528	-0.000559	0.001667
43928	14228086	-9.825593	-0.090478	-0.024961	-0.010003	-0.003770	-0.001165
43929	14228111	-9.830462	-0.122921	-0.020136	-0.004286	-0.002648	-0.005278
43930	14228136	-9.824149	-0.088550	-0.030277	-0.001952	-0.001580	-0.007844
43931	14228161	-9.826324	-0.105633	-0.029294	-0.001623	-0.001559	-0.003228
43932	14228186	-9.820585	-0.102627	-0.039910	-0.007823	0.001810	-0.006589
43933	14228211	-9.835762	-0.104020	-0.048424	-0.004381	-0.001219	-0.001872
43934	14228236	-9.834492	-0.097101	-0.036460	-0.007637	-0.001538	-0.002889
43935	14228261	-9.871763	-0.086625	-0.037710	-0.007221	-0.000623	-0.002496
43936	14228286	-9.859443	-0.085125	-0.029612	-0.006500	-0.002930	0.000566
43937	14228311	-9.835034	-0.096729	-0.024462	-0.004992	-0.001995	0.001591
43938	14228336	-9.849737	-0.098305	-0.032019	-0.000837	-0.004134	-0.003365
43939	14228361	-9.833776	-0.089354	-0.014975	-0.006294	0.004625	-0.004397
43940	14228386	-9.819359	-0.091310	-0.029887	-0.008953	0.003609	-0.002027
43941	14228411	-9.811706	-0.094535	-0.028369	-0.008927	-0.005305	-0.000857
43942	14228436	-9.847635	-0.084745	-0.013852	0.001203	-0.005306	0.002202
43943	14228461	-9.821379	-0.089192	-0.016394	-0.009978	-0.000483	-0.002681
43944	14228486	-9.808916	-0.108395	0.010354	-0.000370	-0.000499	-0.001365
43945	14228511	-9.835094	-0.110572	0.012423	0.000161	-0.001006	0.001003
43946	14228536	-9.837413	-0.106092	-0.006747	-0.004226	-0.000046	-0.001031
43947	14228561	-9.835623	-0.095141	-0.011000	-0.003849	-0.004056	-0.003874
43948	14228586	-9.839546	-0.092949	0.001445	-0.001803	-0.001560	-0.000787
43949	14228611	-9.850478	-0.081819	-0.023938	-0.001618	0.000505	-0.003603
43950	14228636	-9.819907	-0.092458	-0.014973	-0.008824	-0.002265	0.000505
43951	14228661	-9.815126	-0.107505	0.011837	-0.006732	0.000425	0.000642
43952	14228686	-9.792563	-0.107361	-0.017970	-0.007293	-0.000831	-0.008345
43953	14228711	-9.823667	-0.096802	-0.015926	-0.006515	-0.000814	-0.006227
43954	14228736	-9.816432	-0.106726	-0.011635	-0.008447	-0.000322	-0.002371
43955	14228761	-9.836316	-0.071659	-0.023037	-0.004707	-0.000769	0.000380
43956	14228786	-9.857977	-0.089441	-0.027726	-0.006910	-0.000165	-0.002627
43957	14228811	-9.833606	-0.105508	-0.007712	-0.002518	-0.001046	0.003320
43958	14228836	-9.847122	-0.091022	-0.009588	-0.007036	0.001767	-0.002423
43959	14228861	-9.833134	-0.087931	-0.042251	-0.009443	-0.000913	0.000130
43960	14228886	-9.841901	-0.074338	-0.038875	-0.005916	0.003152	0.001237
43961	14228911	-9.815323	-0.074721	-0.024061	-0.005145	-0.003494	-0.001496
43962	14228936	-9.838700	-0.062395	-0.042229	-0.004824	0.000910	-0.001027
43963	14228961	-9.850083	-0.078111	-0.017747	-0.002135	0.002761	-0.003843
43964	14228986	-9.841609	-0.102511	-0.029223	-0.006454	-0.000352	-0.000638
43965	14229011	-9.831922	-0.117172	-0.026428	-0.007883	-0.000125	-0.006603
43966	14229036	-9.810120	-0.074280	-0.019279	-0.006768	-0.004815	-0.002462
43967	14229061	-9.833460	-0.068270	-0.029295	-0.006422	-0.001518	-0.004563
43968	14229086	-9.829473	-0.087773	-0.019234	-0.000350	-0.000755	-0.000468
43969	14229111	-9.852052	-0.068973	-0.024879	-0.007316	0.000674	-0.000435
43970	14229136	-9.847993	-0.089329	-0.023355	-0.003065	-0.008163	0.002904
43971	14229161	-9.817391	-0.092999	-0.038040	-0.006959	0.003847	0.000539
43972	14229186	-9.841883	-0.084577	-0.020562	-0.003511	-0.002041	0.001268
43973	14229211	-9.822094	-0.093922	-0.044629	-0.001255	-0.004974	-0.000358
43974	14229236	-9.841567	-0.109243	-0.021533	-0.006369	-0.004999	0.000747
43975	14229261	-9.811769	-0.120974	-0.040825	-0.004433	-0.006069	-0.004655
43976	14229286	-9.800051	-0.112922	-0.027518	-0.005718	-0.001569	-0.003220
43977	14229311	-9.837847	-0.110883	-0.005331	-0.000675	0.001037	-0.003666
43978	14229336	-9.846199	-0.092513	0.001518	-0.009745	-0.003175	0.003141
43979	14229361	-9.821129	-0.083819	0.010479	-0.006296	-0.005190	0.001831
43980	14229386	-9.840382	-0.090279	-0.022531	-0.008038	-0.001033	-0.003010
43981	14229411	-9.826498	-0.128329	-0.033598	-0.000909	-0.003934	-0.003886
43982	14229436	-9.820686	-0.108238	-0.013012	-0.005656	-0.001763	-0.004689
43983	14229461	-9.836489	-0.102699	-0.010072	-0.005437	-0.002268	-0.001937
43984	14229486	-9.828569	-0.128726	-0.003846	-0.004330	-0.004369	0.004463
43985	14229511	-9.829097	-0.106966	-0.041276	-0.006582	-0.000815	-0.004876
43986	14229536	-9.822987	-0.120255	-0.002504	-0.003642	0.001439	-0.005190
43987	14229561	-9.819662	-0.099683	-0.039887	-0.001661	-0.002204	-0.000985
43988	14229586	-9.827675	-0.082070	-0.013487	-0.008507	0.000335	0.003861
43989	14229611	-9.838438	-0.066362	0.001385	-0.006716	0.002041	-0.000176
43990	14229636	-9.839338	-0.089993	-0.035451	-0.004710	-0.002772	0.000881
43991	14229661	-9.803945	-0.109246	-0.021775	-0.008625	-0.000514	-0.000128
43992	14229686	-9.829319	-0.091296	-0.036046	-0.003776	0.000092	-0.000007
43993	14229711	-9.837383	-0.104052	-0.016309	-0.004275	-0.002185	0.001460
43994	14229736	-9.845865	-0.103447	-0.033028	-0.002816	-0.002165	-0.002068
43995	14229761	-9.846867	-0.097672	-0.035461	-0.007804	0.000024	0.002955
43996	14229786	-9.827196	-0.087020	-0.002906	-0.001629	-0.004975	0.001825
43997	14229811	-9.847504	-0.090752	-0.024430	-0.003485	-0.001067	-0.000396
43998	14229836	-9.860587	-0.081717	-0.006601	-0.005396	-0.001624	-0.002636
43999	14229861	-9.834069	-0.093801	-0.020165	-0.007370	-0.006117	-0.001501
44000	14229886	-9.820068	-0.104350	-0.022327	-0.006764	0.003526	-0.001000
44001	14229911	-9.834168	-0.079381	-0.026525	-0.005457	0.000237	-0.005828
44002	14229936	-9.831564	-0.101767	-0.016885	-0.002612	-0.000805	-0.004043
44003	14229961	-9.831542	-0.094819	-0.034692	-0.005275	-0.001168	-0.000262
44004	14229986	-9.829271	-0.088232	-0.027986	-0.004667	0.000009	0.001733
44005	14230011	-9.808749	-0.088869	-0.034715	-0.005148	-0.003628	-0.002643
44006	14230036	-9.798903	-0.114777	-0.037214	-0.005916	0.000757	-0.001340
44007	14230061	-9.828817	-0.110065	-0.058633	-0.007944	-0.002052	-0.000255
44008	14230086	-9.830194	-0.094075	-0.023672	-0.003409	0.000344	-0.004169
44009	14230111	-9.825480	-0.099976	-0.002082	-0.008391	-0.001934	-0.000766
44010	14230136	-9.826488	-0.099115	0.004162	-0.006245	-0.003056	0.000566
44011	14230161	-9.857017	-0.087434	-0.010990	-0.006805	-0.003715	-0.000970
44012	14230186	-9.845935	-0.095792	-0.015883	-0.003719	-0.002052	-0.003918
44013	14230211	-9.854883	-0.069385	-0.009208	0.002141	0.005551	-0.001647
44014	14230236	-9.846086	-0.091722	0.002832	-0.007436	-0.001331	0.002831
44015	14230261	-9.847860	-0.084657	-0.034614	-0.000094	0.000787	-0.006093
44016	14230286	-9.840870	-0.083415	-0.011105	-0.004281	-0.002445	-0.000902
44017	14230311	-9.842682	-0.081232	-0.032187	-0.004154	-0.000241	-0.001338
44018	14230336	-9.835184	-0.078041	-0.018876	-0.006691	0.001130	-0.001974
44019	14230361	-9.813463	-0.094167	-0.031861	-0.008751	-0.000460	-0.000437
44020	14230386	-9.823887	-0.101535	-0.026567	-0.004607	-0.000258	-0.003850
44021	14230411	-9.808743	-0.105962	-0.001691	-0.005768	-0.001824	-0.000584
44022	14230436	-9.817433	-0.076997	-0.041466	-0.000025	-0.001271	-0.002901
44023	14230461	-9.817455	-0.123370	-0.019366	-0.003278	-0.001977	-0.003666
44024	14230486	-9.807509	-0.115523	-0.026572	-0.001220	-0.006333	-0.001837
44025	14230511	-9.809356	-0.116879	-0.035694	-0.000997	-0.001362	-0.005592
44026	14230536	-9.833674	-0.117292	-0.029360	-0.000666	-0.003679	-0.005671
44027	14230561	-9.843069	-0.092292	-0.023125	-0.003490	0.001127	0.000457
44028	14230586	-9.812755	-0.118980	-0.021340	-0.004721	0.001688	0.001809
44029	14230611	-9.835868	-0.092078	-0.034154	-0.001045	-0.001688	-0.005594
44030	14230636	-9.841007	-0.109023	-0.014920	-0.002369	-0.002156	-0.001936
44031	14230661	-9.860425	-0.109011	-0.034043	-0.002761	-0.000170	-0.006801
44032	14230686	-9.813845	-0.104176	-0.026588	-0.005464	-0.001359	0.000510
44033	14230711	-9.809648	-0.103885	-0.013678	-0.009859	-0.002350	-0.002949
44034	14230736	-9.841317	-0.089222	-0.005374	-0.006732	-0.001839	-0.000963
44035	14230761	-9.846399	-0.084060	-0.040809	-0.001667	-0.000343	-0.005324
44036	14230786	-9.827614	-0.099826	-0.041909	-0.003751	0.001448	0.002894
44037	14230811	-9.825498	-0.088281	-0.022703	-0.004569	0.000651	-0.001721
44038	14230836	-9.872441	-0.102602	-0.028754	0.001770	0.002696	-0.004295
44039	14230861	-9.828155	-0.105028	-0.021152	-0.007699	-0.006197	-0.006755
44040	14230886	-9.835315	-0.109489	-0.011189	-0.005116	0.001673	-0.001977
44041	14230911	-9.804267	-0.101484	-0.041548	-0.003491	0.003254	-0.001265
44042	14230936	-9.807038	-0.111085	-0.036210	-0.003715	0.000216	0.000709
44043	14230961	-9.821338	-0.072914	-0.033227	-0.004593	-0.004975	-0.003868
44044	14230986	-9.832300	-0.084187	-0.010686	-0.004642	-0.002769	0.003581
44045	14231011	-9.819460	-0.116776	-0.016978	-0.007273	-0.000948	-0.001407
44046	14231036	-9.806638	-0.110358	-0.025233	-0.001511	0.000827	-0.005844
44047	14231061	-9.830725	-0.089827	-0.021191	-0.006060	-0.003128	-0.003278
44048	14231086	-9.849016	-0.079777	-0.011536	-0.001676	-0.002086	-0.005911
44049	14231111	-9.832041	-0.094483	-0.030295	-0.005719	-0.002095	-0.007184
44050	14231136	-9.838675	-0.094966	-0.035592	-0.004528	-0.000912	-0.006737
44051	14231161	-9.833042	-0.084303	-0.044695	-0.001256	-0.001308	-0.005975
44052	14231186	-9.799510	-0.110252	-0.022316	-0.004007	-0.002953	0.000688
44053	14231211	-9.812980	-0.097159	-0.026592	-0.008099	-0.001422	-0.004041
44054	14231236	-9.821467	-0.108766	-0.016479	-0.009409	-0.002608	-0.005834
44055	14231261	-9.835302	-0.104065	-0.023599	-0.012001	-0.001290	-0.002740
44056	14231286	-9.818625	-0.105798	-0.020344	-0.007729	-0.000761	-0.002173
44057	14231311	-9.817271	-0.102562	-0.015529	-0.005955	-0.004351	-0.003415
44058	14231336	-9.822464	-0.109314	-0.008849	-0.004837	0.001298	0.001487
44059	14231361	-9.827291	-0.106128	-0.005961	-0.013350	0.003016	-0.002266
44060	14231386	-9.823972	-0.104608	-0.006983	-0.006627	0.005402	-0.000794
44061	14231411	-9.826504	-0.124942	-0.018396	-0.006647	0.001450	-0.004344
44062	14231436	-9.819341	-0.120825	-0.028960	-0.004016	-0.000626	0.000449
44063	14231461	-9.826446	-0.101993	0.004163	-0.009099	0.000054	-0.001585
44064	14231486	-9.823982	-0.103716	-0.006868	-0.008701	-0.002462	-0.003333
44065	14231511	-9.814376	-0.101879	-0.023225	-0.007148	-0.002880	-0.001355
44066	14231536	-9.827727	-0.114851	0.005120	-0.000700	-0.000256	-0.001419
44067	14231561	-9.834027	-0.093164	-0.020776	-0.007553	-0.000180	-0.003006
44068	14231586	-9.859711	-0.085534	-0.041227	-0.006235	-0.001308	0.001609
44069	14231611	-9.830016	-0.068867	-0.024106	-0.001799	0.000310	-0.000255
44070	14231636	-9.840965	-0.069433	-0.025563	-0.004221	0.002080	-0.001201
44071	14231661	-9.849119	-0.059970	-0.033578	-0.003411	-0.003794	-0.002968
44072	14231686	-9.842627	-0.078228	-0.046555	0.000159	-0.003478	-0.005220
44073	14231711	-9.805446	-0.093818	-0.019398	-0.001550	-0.004023	-0.004642
44074	14231736	-9.845048	-0.070491	-0.055681	-0.006719	-0.000101	-0.000626
44075	14231761	-9.872538	-0.047705	-0.047448	-0.000578	0.002266	-0.002560
44076	14231786	-9.846777	-0.058515	-0.029320	-0.003645	0.000225	0.001866
44077	14231811	-9.832025	-0.061827	-0.022187	-0.002532	-0.003062	-0.002395
44078	14231836	-9.842295	-0.079031	-0.021670	-0.007123	0.000346	-0.003703
44079	14231861	-9.836483	-0.072393	-0.049446	-0.007728	-0.004968	-0.002837
44080	14231886	-9.831673	-0.065033	0.004673	-0.005363	-0.002721	-0.001866
44081	14231911	-9.803957	-0.110755	0.004053	-0.006188	-0.002743	-0.001614
44082	14231936	-9.818274	-0.105176	-0.001180	-0.005953	-0.000091	-0.002818
44083	14231961	-9.831249	-0.084509	-0.025069	-0.006305	-0.000800	0.000648
44084	14231986	-9.814882	-0.099526	-0.023237	-0.005582	0.000311	-0.001401
44085	14232011	-9.831430	-0.110168	-0.020338	-0.001813	0.003166	0.003861
44086	14232036	-9.825361	-0.104111	-0.012161	-0.003430	-0.000684	0.000249
44087	14232061	-9.838717	-0.100964	-0.015441	-0.004615	-0.002332	-0.006036
44088	14232086	-9.856426	-0.091058	-0.022065	-0.003703	-0.002241	0.000247
44089	14232111	-9.864444	-0.104156	-0.008593	-0.003761	-0.000364	-0.000124
44090	14232136	-9.808002	-0.124395	-0.007408	-0.006284	-0.004232	-0.004889
44091	14232161	-9.837627	-0.117159	-0.005364	-0.005402	-0.003494	-0.000717
44092	14232186	-9.820509	-0.100359	-0.034717	-0.007963	0.000787	0.000340
44093	14232211	-9.838570	-0.106855	-0.029353	-0.005968	0.000565	0.001104
44094	14232236	-9.826825	-0.100826	-0.014990	-0.003691	-0.001281	-0.006031
44095	14232261	-9.828965	-0.110536	-0.033199	-0.003812	-0.003478	-0.005081
44096	14232286	-9.846854	-0.090754	-0.031774	-0.006208	0.004245	-0.000994
44097	14232311	-9.840668	-0.088764	-0.033170	-0.006895	-0.000292	0.002131
44098	14232336	-9.823052	-0.094946	-0.019823	0.002238	-0.002207	-0.003235
44099	14232361	-9.827888	-0.089784	-0.018360	-0.002754	-0.004092	0.000168
44100	14232386	-9.812135	-0.082141	-0.039553	-0.006136	-0.000083	0.001422
44101	14232411	-9.839922	-0.076541	-0.025029	-0.004154	-0.002176	-0.000137
44102	14232436	-9.826529	-0.072334	-0.042368	-0.009644	-0.000535	0.001742
44103	14232461	-9.789306	-0.090740	-0.019116	-0.005896	0.002179	0.000077
44104	14232486	-9.834737	-0.074205	-0.020233	-0.003618	-0.003272	-0.002067
44105	14232511	-9.846801	-0.092565	-0.035947	-0.002719	-0.005126	0.001706
44106	14232536	-9.826267	-0.058740	-0.036606	-0.002867	-0.000620	-0.003403
44107	14232561	-9.844725	-0.086081	-0.000044	-0.005440	-0.002605	-0.006033
44108	14232586	-9.839243	-0.058656	-0.016344	-0.008774	-0.006080	-0.000466
44109	14232611	-9.817131	-0.071499	-0.023713	-0.007613	0.000286	0.004695
44110	14232636	-9.825897	-0.090527	-0.032260	-0.004345	-0.002384	-0.001939
44111	14232661	-9.853345	-0.069569	-0.025969	-0.005229	0.001614	-0.000690
44112	14232686	-9.820090	-0.095160	-0.037103	-0.005257	-0.002015	-0.003728
44113	14232711	-9.827556	-0.107003	-0.037468	-0.008185	-0.008579	0.002599
44114	14232736	-9.856767	-0.069398	-0.011051	-0.002372	-0.001955	-0.000972
44115	14232761	-9.827948	-0.083626	-0.021723	-0.008112	-0.000903	-0.003199
44116	14232786	-9.834647	-0.080813	-0.022679	-0.002931	-0.000545	-0.001991
44117	14232811	-9.841812	-0.075591	-0.029799	-0.006966	-0.002624	-0.002950
44118	14232836	-9.834248	-0.113547	-0.020684	-0.005086	-0.005360	0.000234
44119	14232861	-9.848314	-0.092383	-0.022090	-0.005601	-0.003177	-0.001547
44120	14232886	-9.818565	-0.109080	-0.023304	-0.010288	0.003460	-0.001633
44121	14232911	-9.841013	-0.106065	-0.020242	-0.007315	0.002609	-0.000933
44122	14232936	-9.840785	-0.083735	-0.025002	-0.003043	-0.001332	-0.005203
44123	14232961	-9.837574	-0.084449	-0.004851	-0.003655	-0.006117	-0.002210
44124	14232986	-9.854728	-0.084218	-0.002447	-0.000453	0.000142	-0.000837
44125	14233011	-9.842932	-0.101739	-0.025938	-0.000526	-0.003476	-0.000221
44126	14233036	-9.821563	-0.105108	-0.010236	-0.005977	-0.001447	-0.003207
44127	14233061	-9.798452	-0.123773	-0.010380	-0.004862	-0.000659	-0.007701
44128	14233086	-9.823770	-0.114874	-0.018433	-0.005315	0.000061	-0.000189
44129	14233111	-9.826941	-0.123838	-0.027009	-0.005035	-0.000718	-0.000900
44130	14233136	-9.839606	-0.100239	-0.027863	-0.008713	-0.004072	-0.001545
44131	14233161	-9.851962	-0.072642	-0.010614	-0.011182	-0.000623	0.001107
44132	14233186	-9.832936	-0.073937	-0.003481	-0.008395	-0.001737	0.000326
44133	14233211	-9.829579	-0.075854	-0.004452	-0.004178	-0.003940	-0.005145
44134	14233236	-9.855205	-0.108009	-0.030204	-0.006597	-0.002164	-0.001220
44135	14233261	-9.842634	-0.095795	-0.010132	-0.001699	-0.000781	0.000058
44136	14233286	-9.801256	-0.095951	0.000765	-0.004192	-0.007421	-0.002155
44137	14233311	-9.816353	-0.102686	-0.010727	-0.002995	-0.005217	-0.007725
44138	14233336	-9.818822	-0.104775	0.009357	-0.002374	0.000504	0.000897
44139	14233361	-9.802752	-0.091741	0.003015	-0.005187	0.001928	-0.003774
44140	14233386	-9.824878	-0.096740	-0.029402	-0.002041	-0.000536	-0.002250
44141	14233411	-9.829734	-0.092651	-0.022673	-0.005619	-0.002734	-0.003475
44142	14233436	-9.817791	-0.097260	-0.018456	-0.004748	0.000522	0.001094
44143	14233461	-9.850681	-0.067149	-0.000046	-0.003980	0.000139	-0.003071
44144	14233486	-9.836828	-0.087153	-0.041796	0.000684	-0.003323	0.000294
44145	14233511	-9.837688	-0.097220	-0.035116	-0.007363	-0.001648	0.004618
44146	14233536	-9.815216	-0.096270	-0.052937	-0.004058	0.000526	-0.002557
44147	14233561	-9.832011	-0.102683	-0.018368	-0.007851	-0.000891	-0.003013
44148	14233586	-9.838814	-0.103573	0.005670	-0.008561	-0.002837	-0.000641
44149	14233611	-9.850502	-0.112974	-0.012504	-0.003701	-0.000565	-0.001667
44150	14233636	-9.844452	-0.089770	-0.035117	-0.004755	0.002521	-0.001457
44151	14233661	-9.843141	-0.074841	-0.047590	-0.000878	0.001754	0.001159
44152	14233686	-9.825504	-0.087311	-0.025108	-0.009352	-0.000212	-0.002548
44153	14233711	-9.817980	-0.107303	-0.045718	-0.005467	-0.001697	-0.003785
44154	14233736	-9.831572	-0.085108	-0.050436	-0.006700	-0.003010	-0.002638
44155	14233761	-9.839260	-0.081930	-0.043723	-0.003734	-0.001137	0.003009
44156	14233786	-9.846192	-0.067000	-0.031294	-0.008267	0.004862	0.001965
44157	14233811	-9.839165	-0.100829	-0.020235	-0.006291	-0.001320	0.000389
44158	14233836	-9.820146	-0.127878	-0.037501	-0.008473	-0.005557	-0.001107
44159	14233861	-9.817986	-0.117124	-0.025169	-0.001971	-0.000599	-0.002706
44160	14233886	-9.813362	-0.104184	-0.028048	-0.004898	0.003034	-0.002483
44161	14233911	-9.834790	-0.078195	-0.003520	-0.007463	0.001515	0.002198
44162	14233936	-9.833538	-0.078901	-0.051932	-0.001456	0.001879	0.002827
44163	14233961	-9.822458	-0.102449	-0.024617	-0.003524	0.000218	-0.000505
44164	14233986	-9.841887	-0.110826	-0.022156	-0.004020	-0.000504	-0.003532
44165	14234011	-9.814257	-0.113785	-0.018477	0.000156	0.001456	0.001726
44166	14234036	-9.824795	-0.099473	-0.037079	-0.003551	-0.001276	-0.002892
44167	14234061	-9.828116	-0.110664	-0.016933	-0.004020	0.000152	0.004049
44168	14234086	-9.835058	-0.090500	-0.013046	-0.010727	-0.003085	-0.003012
44169	14234111	-9.826159	-0.080424	-0.008817	-0.005268	0.000513	-0.000952
44170	14234136	-9.841930	-0.077371	-0.005296	-0.006138	-0.006229	0.000553
44171	14234161	-9.835391	-0.088662	-0.040861	-0.003937	-0.001413	-0.005843
44172	14234186	-9.816313	-0.099517	-0.022290	-0.003396	0.002554	0.002389
44173	14234211	-9.824430	-0.089435	-0.040442	-0.002821	-0.000030	-0.000902
44174	14234236	-9.840685	-0.084907	-0.038414	-0.005427	-0.004472	-0.000273
44175	14234261	-9.870661	-0.092573	-0.028265	0.002384	-0.000453	-0.002190
44176	14234286	-9.834355	-0.101139	-0.028377	-0.006984	-0.003980	-0.000332
44177	14234311	-9.824580	-0.103555	0.014191	-0.006022	-0.000021	-0.002562
44178	14234336	-9.830759	-0.093806	-0.009272	-0.007862	0.001298	-0.004852
44179	14234361	-9.816753	-0.105809	-0.016470	-0.008324	-0.004391	-0.002384
44180	14234386	-9.871525	-0.053921	-0.044516	-0.002021	-0.003251	-0.004700
44181	14234411	-9.833388	-0.097693	-0.039028	-0.004011	0.005242	-0.004652
44182	14234436	-9.839094	-0.106028	-0.022665	-0.002985	0.001068	-0.001599
44183	14234461	-9.842974	-0.095505	-0.031220	-0.012216	-0.002328	-0.000305
44184	14234486	-9.835313	-0.098699	-0.032724	-0.006506	-0.001001	-0.003654
44185	14234511	-9.846313	-0.097916	-0.026941	-0.004523	0.001629	0.003220
44186	14234536	-9.798485	-0.119863	-0.014149	-0.003625	-0.002758	-0.000398
44187	14234561	-9.814471	-0.118539	-0.050096	-0.001995	0.000377	-0.000134
44188	14234586	-9.827386	-0.090688	-0.021782	-0.002192	0.002502	-0.003389
44189	14234611	-9.831516	-0.100168	-0.028969	-0.004002	0.002918	-0.003512
44190	14234636	-9.860492	-0.099306	-0.042650	-0.001040	-0.001606	-0.000206
44191	14234661	-9.839803	-0.082088	-0.032224	-0.004515	-0.000693	0.003594
44192	14234686	-9.832037	-0.110527	-0.000619	-0.003244	-0.000814	-0.002509
44193	14234711	-9.844245	-0.112203	-0.023592	-0.005949	0.002122	0.002778
44194	14234736	-9.840590	-0.101287	-0.020184	-0.006959	-0.004619	0.001396
44195	14234761	-9.829551	-0.113171	-0.011102	-0.007315	-0.007921	-0.000224
44196	14234786	-9.848428	-0.089739	-0.009225	-0.004116	0.002792	-0.002612
44197	14234811	-9.828788	-0.083323	-0.041417	-0.006385	0.001326	-0.003257
44198	14234836	-9.810370	-0.088345	-0.004575	-0.011119	-0.000685	0.000526
44199	14234861	-9.824467	-0.069196	0.000790	-0.003254	-0.002562	-0.002967
44200	14234886	-9.838531	-0.082097	-0.007336	-0.005320	0.001857	-0.006460
44201	14234911	-9.827584	-0.075034	-0.020231	-0.002766	-0.003386	0.001076
44202	14234936	-9.857452	-0.073113	-0.047492	-0.002353	-0.000539	-0.001797
44203	14234961	-9.805500	-0.093867	-0.011810	-0.006074	0.001989	0.000916
44204	14234986	-9.823775	-0.080879	-0.007870	-0.008318	0.000007	0.002132
44205	14235011	-9.828175	-0.097628	-0.034230	-0.005911	0.000629	-0.002044
44206	14235036	-9.828419	-0.097273	0.005535	-0.005230	0.003681	0.000794
44207	14235061	-9.851498	-0.078594	0.004285	-0.006545	0.000226	-0.002164
44208	14235086	-9.813774	-0.088520	0.005552	-0.008529	-0.003612	0.001407
44209	14235111	-9.820402	-0.072878	-0.031403	-0.007190	0.000803	-0.000949
44210	14235136	-9.838075	-0.079117	-0.009729	-0.000589	0.000535	0.001791
44211	14235161	-9.801541	-0.101349	-0.020906	-0.004792	-0.000651	-0.003786
44212	14235186	-9.832345	-0.099380	-0.049986	-0.005719	0.000237	-0.004670
44213	14235211	-9.831351	-0.114401	-0.025134	-0.003862	0.004999	-0.000098
44214	14235236	-9.826790	-0.098275	-0.025034	-0.008219	-0.005883	-0.005789
44215	14235261	-9.862868	-0.101374	-0.037863	0.000086	-0.000882	-0.003089
44216	14235286	-9.846008	-0.112833	-0.046546	-0.005393	-0.001490	0.000389
44217	14235311	-9.840012	-0.101980	-0.035582	-0.002223	-0.000598	0.000635
44218	14235336	-9.833765	-0.081403	-0.009242	-0.005314	0.000325	0.002129
44219	14235361	-9.817589	-0.135661	-0.051436	-0.003748	-0.003080	-0.000528
44220	14235386	-9.863377	-0.099424	-0.036404	-0.011784	-0.001925	0.001492
44221	14235411	-9.818904	-0.116618	-0.030877	-0.008033	-0.001487	-0.005898
44222	14235436	-9.837227	-0.102701	-0.023126	-0.002705	-0.000034	-0.004935
44223	14235461	-9.827786	-0.092955	-0.028423	-0.001875	-0.001557	0.000182
44224	14235486	-9.820127	-0.084509	-0.051418	-0.003473	-0.005732	-0.002275
44225	14235511	-9.837967	-0.115320	-0.032234	-0.014238	-0.001389	0.000082
44226	14235536	-9.818649	-0.103912	-0.021323	-0.007781	-0.000958	-0.001857
44227	14235561	-9.826982	-0.085017	-0.019774	-0.008148	-0.003351	0.001086
44228	14235586	-9.867173	-0.061530	-0.039256	-0.006907	-0.002429	-0.002949
44229	14235611	-9.844518	-0.091855	-0.021635	-0.002088	-0.000791	-0.000905
44230	14235636	-9.843771	-0.113720	-0.021642	-0.004905	-0.001040	-0.004366
44231	14235661	-9.825718	-0.109722	-0.020285	-0.000697	-0.004321	-0.001056
44232	14235686	-9.850043	-0.055952	-0.047466	-0.004068	-0.003283	-0.002961
44233	14235711	-9.825605	-0.085613	-0.011191	-0.006559	-0.003324	-0.001803
44234	14235736	-9.812456	-0.065861	-0.020919	-0.005126	0.004257	-0.002600
44235	14235761	-9.828067	-0.074600	-0.020796	-0.004748	0.000452	-0.000185
44236	14235786	-9.832732	-0.080359	-0.024571	-0.006196	-0.003140	-0.008024
44237	14235811	-9.820883	-0.080783	-0.015062	-0.006737	-0.000043	-0.005375
44238	14235836	-9.815371	-0.104447	-0.012268	-0.001191	0.003426	-0.001273
44239	14235861	-9.833604	-0.090374	-0.017843	-0.004597	-0.002581	-0.002253
44240	14235886	-9.828681	-0.097734	-0.027942	-0.002927	-0.002743	-0.001490
44241	14235911	-9.840769	-0.096404	-0.000577	-0.006555	-0.001322	-0.000705
44242	14235936	-9.857923	-0.094673	-0.003344	-0.008097	-0.002965	0.000381
44243	14235961	-9.838289	-0.101478	-0.006295	-0.006029	-0.003892	0.000180
44244	14235986	-9.828109	-0.113595	-0.011155	-0.002792	-0.000407	0.002180
44245	14236011	-9.825510	-0.087315	-0.021686	-0.000127	-0.006247	0.000469
44246	14236036	-9.810919	-0.099141	-0.047174	-0.006989	-0.003853	-0.000784
44247	14236061	-9.821045	-0.098514	-0.030432	-0.005352	0.001548	0.000718
44248	14236086	-9.841192	-0.097721	-0.007223	-0.004518	-0.005160	-0.001432
44249	14236111	-9.841215	-0.086544	-0.026423	-0.007859	-0.004901	-0.003347
44250	14236136	-9.851276	-0.080456	-0.029252	-0.006697	-0.002812	0.000380
44251	14236161	-9.841798	-0.110102	-0.038435	-0.003533	-0.001919	-0.003920
44252	14236186	-9.822224	-0.110699	-0.045208	-0.007620	-0.004317	-0.002772
44253	14236211	-9.833855	-0.103522	-0.027377	-0.005597	-0.005384	-0.001752
44254	14236236	-9.834003	-0.105868	0.002260	-0.003503	-0.000557	-0.000393
44255	14236261	-9.853058	-0.083597	-0.043671	-0.001267	-0.000782	-0.005142
44256	14236286	-9.835773	-0.093255	-0.045722	-0.003272	0.004555	0.001310
44257	14236311	-9.820676	-0.094944	-0.019817	-0.007220	-0.002567	-0.001930
44258	14236336	-9.817248	-0.109818	-0.004044	0.000462	-0.002557	-0.001308
44259	14236361	-9.825741	-0.102406	-0.032762	-0.001225	-0.002080	-0.004825
44260	14236386	-9.843206	-0.090168	-0.004438	-0.009540	0.002252	-0.000158
44261	14236411	-9.844339	-0.072574	-0.013048	-0.002067	0.000493	-0.003849
44262	14236436	-9.834009	-0.093109	-0.024595	-0.002863	-0.000678	-0.000778
44263	14236461	-9.825838	-0.098742	-0.023652	-0.001426	-0.001685	-0.002711
44264	14236486	-9.850621	-0.085864	-0.046545	-0.005992	-0.000794	0.000067
44265	14236511	-9.813285	-0.111800	-0.024201	-0.005344	-0.000973	0.001475
44266	14236536	-9.824186	-0.109385	-0.036565	-0.004593	-0.004515	0.001262
44267	14236561	-9.838150	-0.095804	-0.041814	-0.006506	-0.001201	-0.005898
44268	14236586	-9.799986	-0.101435	-0.041082	-0.002386	0.002494	-0.003651
44269	14236611	-9.816832	-0.094801	-0.024668	-0.007103	-0.002107	-0.001223
44270	14236636	-9.836893	-0.093766	-0.018828	-0.005183	-0.000595	-0.005901
44271	14236661	-9.828644	-0.109943	-0.009248	-0.003959	-0.002578	-0.003475
44272	14236686	-9.836393	-0.103438	-0.002470	-0.003062	-0.002621	-0.002448
44273	14236711	-9.848839	-0.091512	-0.018291	-0.000685	-0.000577	-0.002450
44274	14236736	-9.840685	-0.094202	-0.020247	-0.003153	0.000419	-0.002557
44275	14236761	-9.834546	-0.098188	-0.002575	-0.003311	0.001648	0.001867
44276	14236786	-9.844435	-0.083806	-0.051879	-0.002658	0.003076	-0.002740
44277	14236811	-9.809131	-0.097426	-0.032905	-0.008182	0.001749	-0.001585
44278	14236836	-9.834546	-0.086900	-0.026566	-0.005709	0.002639	0.002071
44279	14236861	-9.842652	-0.082181	-0.034139	-0.008658	0.000317	-0.002612
44280	14236886	-9.834308	-0.099017	-0.041292	-0.004089	-0.004506	-0.000341
44281	14236911	-9.833004	-0.089473	-0.038920	-0.009438	-0.002848	0.004555
44282	14236936	-9.831113	-0.095437	-0.025521	-0.005926	-0.003056	-0.001869
44283	14236961	-9.824078	-0.084395	-0.029965	-0.009799	0.001910	-0.004657
44284	14236986	-9.825540	-0.082518	-0.029016	-0.003874	0.007255	-0.002013
44285	14237011	-9.833592	-0.099639	-0.000645	-0.003994	0.002928	-0.001137
44286	14237036	-9.814225	-0.106432	-0.038084	0.001489	-0.002803	-0.003493
44287	14237061	-9.843856	-0.101140	-0.033646	0.000247	0.000215	-0.001803
44288	14237086	-9.834856	-0.096309	-0.033222	-0.007890	0.000592	-0.000244
44289	14237111	-9.847122	-0.063574	-0.042737	-0.005211	0.000705	-0.001459
44290	14237136	-9.827763	-0.084071	-0.050965	-0.010207	-0.001191	0.000012
44291	14237161	-9.838067	-0.110761	-0.023612	-0.004032	-0.000444	-0.006223
44292	14237186	-9.834480	-0.098995	-0.012117	-0.005056	-0.002001	0.001530
44293	14237211	-9.826307	-0.095257	-0.033687	-0.005046	-0.004725	-0.003549
44294	14237236	-9.833449	-0.063285	-0.021247	-0.008878	0.001086	-0.004014
44295	14237261	-9.851789	-0.087927	-0.006727	-0.005686	-0.002344	-0.001159
44296	14237286	-9.818613	-0.102310	-0.030890	-0.007138	0.000994	-0.000688
44297	14237311	-9.831564	-0.101255	-0.019323	-0.002986	-0.000812	-0.003083
44298	14237336	-9.847219	-0.074553	-0.002496	-0.006007	0.000124	0.005330
44299	14237361	-9.846187	-0.069954	-0.025970	-0.006276	0.000432	0.001363
44300	14237386	-9.821330	-0.086623	-0.006871	-0.008678	-0.003304	-0.004619
44301	14237411	-9.809941	-0.113202	-0.025220	-0.001618	0.002705	-0.001726
44302	14237436	-9.834904	-0.091505	-0.034620	-0.003514	-0.001907	0.002880
44303	14237461	-9.807192	-0.094910	-0.044821	-0.003667	-0.002058	-0.006874
44304	14237486	-9.808002	-0.115582	-0.025154	-0.005357	-0.003183	-0.005208
44305	14237511	-9.828186	-0.099651	-0.027879	-0.003062	-0.006755	-0.002602
44306	14237536	-9.828508	-0.110449	-0.031838	-0.002202	0.001089	0.000899
44307	14237561	-9.828359	-0.095701	-0.005914	-0.002836	-0.001189	0.001465
44308	14237586	-9.836711	-0.108866	-0.015905	-0.005801	-0.002396	0.004934
44309	14237611	-9.841943	-0.071515	-0.012998	-0.004829	-0.004965	0.002865
44310	14237636	-9.814660	-0.113687	-0.030425	-0.006768	-0.000684	-0.002821
44311	14237661	-9.840697	-0.101597	-0.002956	-0.007182	-0.003983	-0.002450
44312	14237686	-9.841496	-0.097756	-0.034145	-0.006028	0.000569	0.001748
44313	14237711	-9.801060	-0.094959	-0.031934	-0.001343	-0.002067	0.000624
44314	14237736	-9.822332	-0.097747	-0.053812	-0.005127	-0.006340	-0.003237
44315	14237761	-9.842918	-0.099268	-0.034156	-0.005235	0.001277	-0.006406
44316	14237786	-9.862405	-0.068780	-0.025368	-0.002025	-0.002924	-0.001296
44317	14237811	-9.839092	-0.105598	-0.023117	-0.004876	-0.002143	-0.006421
44318	14237836	-9.841726	-0.081717	-0.032221	-0.007975	0.000846	-0.004339
44319	14237861	-9.829945	-0.075994	-0.023126	-0.010216	-0.003003	-0.000447
44320	14237886	-9.833449	-0.100732	-0.021733	-0.003998	0.000985	-0.001468
44321	14237911	-9.826565	-0.075365	-0.031782	-0.002903	-0.003648	-0.002460
44322	14237936	-9.830302	-0.081615	-0.028889	-0.002499	-0.001770	-0.000198
44323	14237961	-9.838861	-0.084076	-0.027914	0.001682	-0.000656	-0.000399
44324	14237986	-9.808481	-0.106767	-0.041453	-0.006311	-0.002807	0.000566
44325	14238011	-9.829617	-0.092794	-0.043273	-0.002860	-0.004879	-0.001758
44326	14238036	-9.806405	-0.084522	-0.038610	-0.006782	-0.000621	-0.004032
44327	14238061	-9.804702	-0.075591	-0.024314	-0.005655	0.003165	0.003612
44328	14238086	-9.825712	-0.069254	-0.028043	-0.003287	0.002868	-0.001912
44329	14238111	-9.819661	-0.090452	-0.037987	-0.005248	-0.006802	-0.005934
44330	14238136	-9.835148	-0.071053	-0.038501	-0.006749	0.001006	-0.000431
44331	14238161	-9.847802	-0.096179	-0.019259	-0.007151	0.001642	0.000921
44332	14238186	-9.843512	-0.086293	-0.040877	-0.006592	0.002369	0.003485
44333	14238211	-9.826499	-0.085483	-0.021315	-0.009190	0.003091	-0.000674
44334	14238236	-9.832560	-0.088679	-0.036121	-0.005202	0.000443	-0.003394
44335	14238261	-9.806978	-0.078330	-0.032840	-0.002849	-0.004992	0.002988
44336	14238286	-9.842469	-0.105616	-0.016422	-0.004219	0.004350	0.003301
44337	14238311	-9.816406	-0.103265	-0.000224	-0.011319	-0.000702	-0.003897
44338	14238336	-9.836738	-0.110500	-0.009260	-0.004798	0.001547	-0.004345
44339	14238361	-9.830618	-0.095835	-0.026984	-0.005460	0.000966	0.001556
44340	14238386	-9.850955	-0.073990	-0.015869	-0.005735	-0.002858	-0.000843
44341	14238411	-9.846001	-0.095016	-0.005763	-0.005741	-0.004935	-0.003162
44342	14238436	-9.834604	-0.086637	-0.017848	-0.009108	-0.002156	-0.007114
44343	14238461	-9.832340	-0.118902	-0.011147	-0.005177	-0.002456	-0.000587
44344	14238486	-9.804642	-0.116918	-0.024227	-0.003088	-0.003517	0.001326
44345	14238511	-9.832514	-0.101761	-0.016411	-0.004512	-0.003354	-0.002834
44346	14238536	-9.835742	-0.108418	-0.020216	-0.005972	-0.004032	-0.005977
44347	14238561	-9.832603	-0.096092	-0.011570	-0.010636	-0.005648	0.003007
44348	14238586	-9.854436	-0.097653	-0.022044	-0.011887	-0.002706	0.000331
44349	14238611	-9.834665	-0.088695	-0.004022	-0.004269	0.001366	-0.000633
44350	14238636	-9.845668	-0.076754	-0.018353	-0.006346	0.002171	-0.001007
44351	14238661	-9.829515	-0.101373	-0.040893	-0.009468	-0.000407	-0.002100
44352	14238686	-9.826070	-0.084597	-0.016994	-0.002228	0.001726	-0.001465
44353	14238711	-9.826774	-0.103552	-0.016468	-0.005277	-0.001293	0.000702
44354	14238736	-9.827042	-0.113861	-0.029889	-0.005746	-0.000666	-0.002372
44355	14238761	-9.838194	-0.099756	-0.027462	-0.004709	0.001231	-0.001529
44356	14238786	-9.838456	-0.077935	-0.028393	-0.000161	-0.003020	-0.002009
44357	14238811	-9.825706	-0.071719	-0.023740	-0.002228	0.005534	-0.003500
44358	14238836	-9.832496	-0.060289	-0.026976	0.000048	0.000936	0.001983
44359	14238861	-9.829301	-0.078532	-0.044216	-0.003961	-0.004573	-0.002331
44360	14238886	-9.830332	-0.078209	-0.032759	-0.005318	0.000449	0.001870
44361	14238911	-9.823722	-0.074415	-0.031349	-0.001608	-0.001821	-0.003096
44362	14238936	-9.819871	-0.087874	-0.008827	-0.004703	-0.002958	0.003193
44363	14238961	-9.813492	-0.088361	-0.040523	-0.005326	0.000115	-0.003783
44364	14238986	-9.834539	-0.094231	-0.012153	-0.003006	0.004303	0.000410
44365	14239011	-9.850989	-0.107658	-0.020667	-0.008033	0.000715	-0.003895
44366	14239036	-9.824067	-0.088724	-0.021733	-0.005260	-0.003876	0.000624
44367	14239061	-9.856111	-0.077201	-0.023956	-0.006975	-0.001708	0.003794
44368	14239086	-9.847969	-0.074113	-0.039878	-0.005028	0.001027	-0.001274
44369	14239111	-9.828401	-0.090406	-0.010719	-0.004077	-0.000700	-0.002825
44370	14239136	-9.840435	-0.079099	-0.012584	-0.008442	-0.000252	0.000334
44371	14239161	-9.833580	-0.093212	-0.014985	-0.003099	-0.001000	0.001600
44372	14239186	-9.812981	-0.099971	-0.022719	-0.003761	-0.004759	-0.000091
44373	14239211	-9.827529	-0.086684	-0.006462	-0.005533	0.004826	-0.004648
44374	14239236	-9.841198	-0.100179	-0.002536	0.000954	0.002296	-0.002500
44375	14239261	-9.848404	-0.087218	-0.017792	-0.003864	0.000925	0.001036
44376	14239286	-9.817950	-0.124901	-0.014558	-0.005130	-0.004081	-0.003162
44377	14239311	-9.823386	-0.105874	-0.021272	-0.007775	-0.001349	-0.003588
44378	14239336	-9.830159	-0.100302	-0.016424	-0.003810	-0.000885	0.000256
44379	14239361	-9.829956	-0.107612	-0.034192	-0.006203	-0.000212	0.000386
44380	14239386	-9.830483	-0.111762	-0.016377	-0.002125	-0.004487	-0.008883
44381	14239411	-9.834486	-0.095578	-0.019750	-0.007485	-0.002375	-0.002758
44382	14239436	-9.820139	-0.101623	-0.012614	-0.004426	-0.005801	0.001575
44383	14239461	-9.863001	-0.101160	-0.015310	-0.007467	-0.000428	0.002195
44384	14239486	-9.834517	-0.087326	-0.029880	-0.002682	0.001915	0.000267
44385	14239511	-9.828897	-0.077171	-0.033734	-0.002301	0.000383	0.004809
44386	14239536	-9.812854	-0.106575	-0.029070	-0.009854	0.003588	-0.005931
44387	14239561	-9.825432	-0.078762	-0.053872	-0.007288	-0.000231	0.000906
44388	14239586	-9.799838	-0.088087	-0.015599	-0.006640	-0.002944	-0.002831
44389	14239611	-9.843206	-0.080864	-0.026514	-0.007655	0.003180	-0.002858
44390	14239636	-9.838301	-0.130636	-0.023626	-0.009568	0.001019	0.001177
44391	14239661	-9.819383	-0.079024	-0.029441	-0.008328	0.000530	0.002649
44392	14239686	-9.826404	-0.115301	-0.053892	-0.004059	0.005189	0.001377
44393	14239711	-9.827481	-0.114288	-0.033689	-0.005598	-0.001507	-0.002760
44394	14239736	-9.833304	-0.109185	-0.029899	-0.004740	0.003868	-0.005879
44395	14239761	-9.820519	-0.100411	-0.034743	-0.002074	0.000696	-0.003208
44396	14239786	-9.811598	-0.094254	-0.025603	-0.005265	-0.003827	-0.002258
44397	14239811	-9.846401	-0.086461	-0.036505	-0.001611	0.000116	-0.002629
44398	14239836	-9.826927	-0.085372	-0.030378	-0.006115	-0.001125	-0.003913
44399	14239861	-9.843379	-0.070028	-0.018339	-0.009046	0.000845	0.002712
44400	14239886	-9.847384	-0.086580	-0.030213	-0.006711	-0.004679	-0.002840
44401	14239911	-9.842527	-0.077666	0.013787	-0.003436	0.001392	-0.001019
44402	14239936	-9.831081	-0.060900	-0.023195	-0.005671	0.000827	-0.006408
44403	14239961	-9.823227	-0.113781	-0.029861	-0.004959	-0.003482	-0.002517
44404	14239986	-9.839451	-0.084895	-0.006852	-0.004549	0.000088	0.001219
44405	14240011	-9.834801	-0.118237	0.001798	-0.001241	-0.003815	-0.006507
44406	14240036	-9.838319	-0.099127	-0.007348	-0.002488	0.003800	-0.000431
44407	14240061	-9.849173	-0.068349	-0.010196	-0.008258	0.004219	-0.001246
44408	14240086	-9.842950	-0.112546	-0.002969	-0.007935	-0.000300	-0.001468
44409	14240111	-9.840941	-0.113684	-0.016312	-0.004603	-0.004500	0.000943
44410	14240136	-9.833342	-0.110260	-0.019765	-0.002976	-0.003187	-0.001112
44411	14240161	-9.851158	-0.098219	-0.012996	-0.001433	0.001045	0.000642
44412	14240186	-9.845966	-0.091933	-0.017355	-0.003056	-0.000349	-0.000453
44413	14240211	-9.830314	-0.084574	-0.021677	-0.002438	-0.004213	-0.002468
44414	14240236	-9.827495	-0.073868	-0.036111	-0.003383	-0.002353	-0.000015
44415	14240261	-9.836910	-0.087922	-0.027437	-0.005974	0.000243	-0.004093
44416	14240286	-9.794085	-0.120522	-0.032472	-0.002109	0.001667	-0.003210
44417	14240311	-9.819169	-0.123768	-0.051515	-0.004396	0.001578	0.002445
44418	14240336	-9.855408	-0.062702	-0.013947	-0.006083	-0.000076	-0.001851
44419	14240361	-9.825600	-0.080207	-0.021752	-0.008963	0.000267	0.001813
44420	14240386	-9.829187	-0.096838	-0.026518	-0.009021	-0.002524	-0.002886
44421	14240411	-9.816587	-0.112272	-0.030409	-0.007409	-0.000621	-0.001024
44422	14240436	-9.849684	-0.101120	-0.014886	-0.002527	-0.001836	-0.007063
44423	14240461	-9.817719	-0.127148	-0.047649	-0.005965	-0.001746	0.001211
44424	14240486	-9.846836	-0.094208	-0.025486	-0.006306	-0.001051	-0.001347
44425	14240511	-9.822655	-0.093159	-0.012192	-0.006820	0.003208	-0.001320
44426	14240536	-9.810387	-0.102913	-0.049627	-0.003043	-0.001258	-0.004630
44427	14240561	-9.825532	-0.086954	-0.020296	-0.006007	-0.002927	-0.005463
44428	14240586	-9.819423	-0.089007	-0.003047	-0.006489	-0.003642	-0.004117
44429	14240611	-9.851122	-0.096212	-0.022545	-0.005041	-0.004774	-0.001882
44430	14240636	-9.830791	-0.082621	-0.026014	-0.006436	-0.003120	-0.002064
44431	14240661	-9.842056	-0.087714	-0.042757	-0.005616	-0.000653	-0.001474
44432	14240686	-9.836138	-0.069722	-0.033689	-0.003181	-0.000471	0.001085
44433	14240711	-9.827030	-0.080276	-0.021724	-0.002998	-0.002547	-0.002454
44434	14240736	-9.828461	-0.072450	-0.039004	-0.003809	-0.001068	-0.001998
44435	14240761	-9.844839	-0.064307	-0.023062	-0.004360	-0.001912	-0.000001
44436	14240786	-9.834172	-0.084202	-0.014054	-0.005929	-0.000319	0.004429
44437	14240811	-9.836226	-0.110397	-0.014459	-0.007662	-0.000624	-0.001335
44438	14240836	-9.823142	-0.097141	-0.002128	-0.002696	-0.000028	-0.005715
44439	14240861	-9.832936	-0.107462	-0.013075	-0.007321	-0.001383	0.001153
44440	14240886	-9.820771	-0.082483	-0.028473	-0.008509	-0.002514	-0.002056
44441	14240911	-9.855721	-0.078491	-0.008220	-0.005884	0.001666	-0.004733
44442	14240936	-9.829158	-0.105049	-0.014028	-0.007939	-0.002369	-0.001283
44443	14240961	-9.840852	-0.091207	0.000401	-0.001626	-0.003232	-0.000983
44444	14240986	-9.842812	-0.080721	-0.010129	-0.003502	-0.003077	-0.005531
44445	14241011	-9.835975	-0.100208	0.000423	-0.001308	-0.005822	-0.006576
44446	14241036	-9.851474	-0.085839	0.012867	-0.003551	0.001003	-0.001536
44447	14241061	-9.838401	-0.093004	-0.008309	-0.000232	0.000985	-0.006162
44448	14241086	-9.835547	-0.116699	-0.036566	-0.000830	-0.000307	-0.002386
44449	14241111	-9.835285	-0.096179	-0.041820	-0.003359	-0.001448	-0.002961
44450	14241136	-9.841518	-0.107709	-0.011071	-0.001527	-0.004783	-0.004973
44451	14241161	-9.832947	-0.101676	-0.024576	-0.002836	-0.001705	-0.004244
44452	14241186	-9.823709	-0.082197	-0.016950	-0.005271	0.000387	-0.002751
44453	14241211	-9.829140	-0.102551	-0.022715	-0.010242	0.002053	-0.000809
44454	14241236	-9.846346	-0.097098	-0.025028	-0.011089	0.002091	-0.004968
44455	14241261	-9.832155	-0.088332	-0.026504	-0.005756	-0.000398	-0.003333
44456	14241286	-9.812479	-0.093174	-0.039553	-0.006874	-0.001781	-0.007062
44457	14241311	-9.824234	-0.074967	-0.022685	-0.002967	-0.003703	-0.002269
44458	14241336	-9.819132	-0.101936	-0.025140	-0.005139	-0.001545	-0.001484
44459	14241361	-9.819041	-0.111105	-0.018440	-0.005764	-0.000146	-0.003716
44460	14241386	-9.821458	-0.094929	-0.047199	-0.004461	0.001839	0.004500
44461	14241411	-9.818399	-0.112517	-0.044840	-0.006382	0.003541	-0.000556
44462	14241436	-9.833365	-0.071372	-0.018403	-0.001611	0.002529	-0.001274
44463	14241461	-9.845011	-0.080723	-0.041811	-0.006332	0.001331	-0.007553
44464	14241486	-9.808040	-0.117566	-0.013668	-0.004704	-0.000755	0.002114
44465	14241511	-9.862513	-0.062679	-0.017273	-0.005378	-0.001732	0.004165
44466	14241536	-9.823858	-0.100920	-0.031329	-0.005132	-0.001733	0.000571
44467	14241561	-9.859091	-0.074669	-0.011084	-0.007534	0.003451	-0.002985
44468	14241586	-9.831357	-0.105109	-0.044770	-0.006263	0.001667	-0.002040
44469	14241611	-9.842706	-0.072993	-0.044204	-0.004905	-0.000702	0.000189
44470	14241636	-9.816051	-0.117463	-0.028474	-0.003010	-0.001699	0.002168
44471	14241661	-9.824509	-0.089111	-0.027956	-0.003587	-0.001900	0.001588
44472	14241686	-9.834033	-0.086329	-0.033679	-0.005016	-0.001417	-0.000395
44473	14241711	-9.824360	-0.093167	-0.044735	-0.003095	-0.001641	-0.002643
44474	14241736	-9.818954	-0.080633	-0.017000	-0.007668	-0.000030	0.004113
44475	14241761	-9.807789	-0.091256	-0.033850	-0.002573	0.002180	-0.002751
44476	14241786	-9.834105	-0.131284	-0.008288	0.000457	-0.000347	0.000307
44477	14241811	-9.860415	-0.076846	-0.022507	-0.003673	0.000936	0.001037
44478	14241836	-9.842682	-0.092041	-0.009650	-0.004050	-0.003660	-0.001429
44479	14241861	-9.811646	-0.096824	-0.011746	-0.004888	-0.001349	-0.000331
44480	14241886	-9.823680	-0.081639	-0.022178	-0.003909	-0.004433	-0.002845
44481	14241911	-9.825319	-0.104441	-0.019362	-0.002436	0.000058	-0.001033
44482	14241936	-9.831882	-0.113044	-0.019358	-0.006735	0.002767	0.001754
44483	14241961	-9.843588	-0.082585	-0.036990	-0.008789	0.000393	-0.001839
44484	14241986	-9.841089	-0.102367	-0.015899	-0.006159	0.000049	-0.003965
44485	14242011	-9.846819	-0.104898	-0.007755	-0.004230	-0.001724	-0.000007
44486	14242036	-9.844701	-0.111237	-0.030266	-0.008686	-0.001100	-0.003774
44487	14242061	-9.834038	-0.085428	-0.034611	-0.003956	-0.003020	-0.006685
44488	14242086	-9.816676	-0.100266	-0.039977	-0.002319	-0.003888	-0.002144
44489	14242111	-9.807920	-0.124111	-0.020817	-0.003035	-0.003314	0.000617
44490	14242136	-9.844435	-0.092635	-0.034125	-0.005130	0.000001	-0.001600
44491	14242161	-9.829150	-0.106541	-0.012145	-0.005811	0.001283	-0.003320
44492	14242186	-9.809087	-0.091469	-0.052024	-0.003153	0.000031	-0.004621
44493	14242211	-9.828149	-0.104957	-0.023159	-0.005032	-0.003101	-0.004120
44494	14242236	-9.842157	-0.089955	-0.021180	-0.002606	-0.000660	-0.002192
44495	14242261	-9.842337	-0.081563	-0.009703	-0.003533	0.000425	-0.001219
44496	14242286	-9.847605	-0.107930	-0.029292	-0.010197	0.000235	-0.002351
44497	14242311	-9.806770	-0.099878	-0.024703	-0.005171	-0.002386	0.000758
44498	14242336	-9.816496	-0.089300	-0.014158	-0.002271	0.000766	-0.003912
44499	14242361	-9.827816	-0.087651	-0.035155	-0.006546	-0.001763	-0.001800
44500	14242386	-9.831880	-0.100898	-0.044239	-0.007534	-0.001010	-0.004357
44501	14242411	-9.812903	-0.103727	-0.025627	-0.006591	0.000048	0.000843
44502	14242436	-9.826941	-0.090803	-0.015926	-0.002535	-0.003181	-0.002968
44503	14242461	-9.791082	-0.095835	-0.027211	-0.001882	0.000776	-0.001352
44504	14242486	-9.807992	-0.103794	-0.051565	-0.007053	0.002164	-0.001906
44505	14242511	-9.827314	-0.090059	-0.032746	-0.009252	-0.001556	-0.003776
44506	14242536	-9.821600	-0.096305	-0.021251	-0.003543	-0.003582	-0.000788
44507	14242561	-9.840733	-0.077636	-0.045143	-0.008291	-0.000624	0.002581
44508	14242586	-9.828186	-0.095737	-0.034632	-0.007144	-0.005330	-0.002201
44509	14242611	-9.849185	-0.084803	-0.050842	-0.010790	-0.002806	0.001992
44510	14242636	-9.849876	-0.076137	-0.033129	-0.006208	-0.000279	-0.002107
44511	14242661	-9.838097	-0.098591	-0.044712	-0.004262	-0.001146	-0.004113
44512	14242686	-9.833481	-0.089998	-0.037490	-0.001732	-0.001544	0.003576
44513	14242711	-9.818769	-0.127464	-0.030835	-0.004420	-0.004119	-0.000729
44514	14242736	-9.834216	-0.114006	-0.024063	-0.005367	-0.002715	-0.003155
44515	14242761	-9.806924	-0.089060	-0.020365	-0.002852	-0.003251	-0.003357
44516	14242786	-9.803610	-0.130942	-0.009399	-0.009480	-0.000140	-0.002557
44517	14242811	-9.815929	-0.131423	-0.019883	-0.004025	0.001377	-0.003201
44518	14242836	-9.833569	-0.096649	-0.008678	-0.004598	-0.006381	0.001442
44519	14242861	-9.818548	-0.114399	-0.015508	-0.003695	-0.004947	-0.001951
44520	14242886	-9.800154	-0.108739	0.002156	-0.005771	-0.005823	0.000162
44521	14242911	-9.803259	-0.156429	-0.016555	-0.004436	-0.001660	-0.001553
44522	14242936	-9.836650	-0.107279	-0.031293	-0.008217	0.002599	-0.002089
44523	14242961	-9.810459	-0.105976	-0.032341	-0.003572	-0.002745	-0.001431
44524	14242986	-9.843074	-0.092401	-0.022600	-0.002430	-0.002547	-0.006367
44525	14243011	-9.833625	-0.133354	-0.004419	-0.005221	-0.001685	-0.006807
44526	14243036	-9.830493	-0.107786	-0.022193	-0.002472	-0.000913	-0.001100
44527	14243061	-9.830324	-0.118673	-0.028424	-0.006527	-0.002545	-0.004885
44528	14243086	-9.834844	-0.101648	-0.024578	-0.000542	-0.001080	-0.000654
44529	14243111	-9.824652	-0.066507	-0.049536	-0.004493	-0.003730	-0.000277
44530	14243136	-9.830255	-0.080010	-0.042859	-0.006123	0.001276	-0.001593
44531	14243161	-9.846311	-0.102396	-0.018241	-0.001404	-0.002582	-0.002970
44532	14243186	-9.832400	-0.111244	-0.015024	-0.002457	0.000834	0.001539
44533	14243211	-9.842605	-0.090860	-0.024048	-0.004713	-0.000890	-0.001152
44534	14243236	-9.841579	-0.092597	-0.031689	-0.005947	-0.004527	0.000176
44535	14243261	-9.843980	-0.100576	-0.013488	-0.005895	-0.002277	-0.005072
44536	14243286	-9.855883	-0.097751	-0.018733	0.000793	-0.000992	-0.004824
44537	14243311	-9.850973	-0.067206	-0.028783	-0.005604	-0.001234	-0.003462
44538	14243336	-9.845136	-0.080050	-0.023156	-0.003168	0.000679	-0.005130
44539	14243361	-9.831256	-0.085994	-0.021684	-0.007838	-0.003730	-0.003280
44540	14243386	-9.824819	-0.064939	-0.025681	-0.005525	0.005178	0.002660
44541	14243411	-9.830624	-0.065305	-0.011661	-0.003238	-0.001128	-0.003988
44542	14243436	-9.821123	-0.107106	0.000303	-0.006084	-0.002208	-0.002514
44543	14243461	-9.833664	-0.082683	-0.022174	0.000018	-0.000682	-0.000721
44544	14243486	-9.825182	-0.102646	-0.045715	-0.003600	-0.001585	-0.001039
44545	14243511	-9.834687	-0.078042	-0.022171	-0.007781	0.000596	-0.006397
44546	14243536	-9.813231	-0.112648	-0.031898	-0.008911	0.000270	0.001614
44547	14243561	-9.805839	-0.099938	-0.019971	-0.008233	0.001048	-0.003389
44548	14243586	-9.809989	-0.123599	0.004112	-0.004144	-0.004886	-0.000605
44549	14243611	-9.842867	-0.112368	-0.014858	-0.007223	-0.006689	-0.001502
44550	14243636	-9.828077	-0.107231	-0.029372	-0.002125	-0.004214	-0.004451
44551	14243661	-9.846812	-0.101955	-0.013926	-0.001812	-0.003554	-0.000280
44552	14243686	-9.838957	-0.088755	-0.003513	-0.005999	0.003414	-0.000617
44553	14243711	-9.834395	-0.095416	-0.034187	-0.005707	-0.000146	-0.006349
44554	14243736	-9.843122	-0.099356	-0.000152	-0.007865	0.003439	-0.005361
44555	14243761	-9.823511	-0.102265	-0.009812	-0.011384	0.003311	-0.006121
44556	14243786	-9.832072	-0.095939	-0.022671	-0.005805	-0.000648	0.000264
44557	14243811	-9.820817	-0.113663	-0.037099	-0.007907	0.000665	-0.003320
44558	14243836	-9.821074	-0.096717	-0.028980	-0.004806	-0.000058	-0.003982
44559	14243861	-9.835820	-0.096857	-0.031766	-0.012611	-0.000261	-0.003637
44560	14243886	-9.838331	-0.078577	-0.048589	-0.006008	0.005740	-0.002719
44561	14243911	-9.824721	-0.111504	-0.025579	-0.003804	0.000542	-0.003715
44562	14243936	-9.816111	-0.108853	-0.036153	-0.007217	-0.002876	-0.002572
44563	14243961	-9.825123	-0.117179	-0.025126	-0.004864	-0.000180	-0.001092
44564	14243986	-9.837413	-0.089949	-0.018759	-0.003564	-0.005074	-0.002913
44565	14244011	-9.832775	-0.091702	0.006074	-0.004780	-0.000767	-0.002187
44566	14244036	-9.818548	-0.107548	-0.030433	-0.007819	0.002284	0.000085
44567	14244061	-9.839283	-0.088933	-0.025570	-0.008458	0.002074	-0.004019
44568	14244086	-9.852815	-0.072443	-0.028778	-0.006701	-0.000997	-0.003393
44569	14244111	-9.827316	-0.093462	-0.027980	-0.008446	-0.000249	-0.002304
44570	14244136	-9.845471	-0.083550	-0.039459	-0.009255	0.003095	-0.003050
44571	14244161	-9.847951	-0.083842	-0.020610	-0.005503	-0.002261	-0.000581
44572	14244186	-9.821527	-0.101553	-0.023184	-0.009333	-0.002851	-0.003593
44573	14244211	-9.838939	-0.082373	-0.017778	-0.007705	-0.005729	-0.003611
44574	14244236	-9.832705	-0.089044	-0.013505	-0.007324	-0.003530	-0.002959
44575	14244261	-9.840595	-0.069709	-0.007254	-0.004731	-0.004376	-0.000532
44576	14244286	-9.830457	-0.078570	-0.009725	-0.007129	-0.003324	0.000757
44577	14244311	-9.831470	-0.095167	-0.045166	-0.006367	-0.003318	-0.002065
44578	14244336	-9.829001	-0.112552	-0.025561	-0.005984	0.000501	-0.005376
44579	14244361	-9.836624	-0.082053	-0.008229	-0.004688	-0.006197	-0.005867
44580	14244386	-9.828226	-0.105133	-0.010255	-0.005318	0.000067	-0.003016
44581	14244411	-9.835839	-0.106685	-0.007321	-0.004455	0.001244	0.000778
44582	14244436	-9.833293	-0.104820	-0.037922	-0.002129	-0.006028	-0.004590
44583	14244461	-9.856492	-0.093168	-0.006702	-0.006492	-0.003119	0.000249
44584	14244486	-9.836751	-0.103621	-0.022234	-0.004113	0.004613	-0.000165
44585	14244511	-9.807937	-0.123729	-0.019884	-0.003970	-0.002497	-0.003740
44586	14244536	-9.831493	-0.094717	-0.042799	-0.004269	-0.000887	-0.003149
44587	14244561	-9.821254	-0.121842	-0.027059	-0.009730	0.001991	0.000283
44588	14244586	-9.848444	-0.086368	-0.013989	-0.004619	0.000204	-0.003910
44589	14244611	-9.833007	-0.092024	-0.035178	-0.005789	0.004770	-0.004651
44590	14244636	-9.840446	-0.110232	-0.026928	-0.001118	-0.001542	-0.003614
44591	14244661	-9.834498	-0.097076	-0.015034	-0.009020	0.001682	-0.002609
44592	14244686	-9.817417	-0.125600	-0.023251	-0.003456	0.002372	0.003345
44593	14244711	-9.842384	-0.105454	-0.029292	-0.002594	-0.002852	0.001396
44594	14244736	-9.837461	-0.097353	0.003684	-0.001968	-0.000516	0.000696
44595	14244761	-9.838748	-0.092153	-0.030254	-0.004059	-0.003468	-0.001620
44596	14244786	-9.830229	-0.091695	-0.022216	-0.007024	0.001195	-0.003387
44597	14244811	-9.854877	-0.068926	-0.010115	-0.001115	0.000717	-0.001407
44598	14244836	-9.818161	-0.106829	-0.016989	-0.005275	0.000516	-0.002684
44599	14244861	-9.832418	-0.097082	-0.041855	-0.008000	-0.000300	-0.000188
44600	14244886	-9.830165	-0.094430	-0.027914	0.000021	-0.002877	-0.001374
44601	14244911	-9.813004	-0.091277	-0.035735	-0.009379	0.000705	-0.001910
44602	14244936	-9.837013	-0.083736	-0.019369	-0.002578	0.004707	0.000085
44603	14244961	-9.849268	-0.096794	-0.012974	-0.001614	-0.001542	-0.000073
44604	14244986	-9.839253	-0.088783	-0.033621	-0.005259	-0.002070	-0.003470
44605	14245011	-9.841238	-0.087128	-0.021665	-0.004484	-0.002253	-0.004050
44606	14245036	-9.849827	-0.087777	-0.019162	0.000198	-0.004891	-0.006896
44607	14245061	-9.843493	-0.093139	-0.029801	-0.001690	-0.001290	-0.000529
44608	14245086	-9.838295	-0.089750	-0.030785	-0.005978	0.000636	-0.000627
44609	14245111	-9.833521	-0.081805	-0.048572	-0.005795	0.001162	0.000076
44610	14245136	-9.826982	-0.085489	-0.018829	-0.003903	-0.001971	0.001274
44611	14245161	-9.833312	-0.076634	-0.014957	-0.004463	-0.004572	-0.000022
44612	14245186	-9.824890	-0.086965	-0.046661	-0.000271	0.000352	-0.001290
44613	14245211	-9.845484	-0.085065	-0.032178	-0.003339	-0.001836	-0.001100
44614	14245236	-9.822994	-0.096263	-0.026563	-0.007282	-0.000678	-0.000577
44615	14245261	-9.831923	-0.099497	-0.037979	-0.004867	-0.003992	0.001007
44616	14245286	-9.826618	-0.088699	0.005115	-0.002789	-0.000790	0.001658
44617	14245311	-9.818834	-0.088212	-0.023208	-0.006157	-0.001825	-0.002573
44618	14245336	-9.821540	-0.102518	-0.018444	-0.007962	0.002934	-0.000167
44619	14245361	-9.840538	-0.112371	-0.006295	-0.006944	-0.002728	0.004679
44620	14245386	-9.809679	-0.091237	-0.032836	-0.002943	-0.002217	-0.000268
44621	14245411	-9.836203	-0.103444	-0.033187	-0.008325	-0.000115	-0.001971
44622	14245436	-9.833490	-0.104763	-0.008311	-0.003509	0.001518	-0.002749
44623	14245461	-9.814537	-0.090558	-0.019392	-0.006610	0.000755	0.002387
44624	14245486	-9.836618	-0.115618	-0.017370	-0.007290	-0.002952	-0.007638
44625	14245511	-9.825248	-0.114061	-0.011161	-0.001700	-0.003038	0.000165
44626	14245536	-9.824477	-0.101836	-0.006451	-0.007708	0.000732	-0.003454
44627	14245561	-9.844643	-0.084855	-0.015437	-0.004314	0.000665	-0.001788
44628	14245586	-9.859127	-0.099442	-0.032178	-0.004596	0.003962	0.000089
44629	14245611	-9.824646	-0.111284	-0.036099	-0.003976	-0.001650	0.001597
44630	14245636	-9.823948	-0.100706	-0.016452	-0.007346	-0.002684	-0.001161
44631	14245661	-9.841240	-0.082193	-0.032262	-0.004411	0.001827	-0.002365
44632	14245686	-9.837943	-0.125556	-0.016885	-0.007285	0.001323	-0.001653
44633	14245711	-9.830660	-0.096450	-0.019337	-0.007559	0.002162	-0.001386
44634	14245736	-9.848203	-0.102814	-0.017281	-0.011550	-0.002941	0.003533
44635	14245761	-9.792288	-0.117799	-0.018989	-0.011371	-0.002618	0.003274
44636	14245786	-9.850568	-0.093557	-0.039833	-0.007811	-0.002304	-0.002502
44637	14245811	-9.837800	-0.125215	-0.038928	-0.006281	-0.000080	-0.001854
44638	14245836	-9.797667	-0.105043	-0.022806	-0.010709	-0.003973	-0.003275
44639	14245861	-9.826350	-0.096371	-0.023214	-0.001702	0.001098	-0.001287
44640	14245886	-9.822369	-0.112525	-0.017446	-0.002365	-0.002207	-0.000849
44641	14245911	-9.846306	-0.091597	-0.039883	-0.005059	0.001948	-0.002289
44642	14245936	-9.851254	-0.081352	-0.032674	-0.002719	0.000888	-0.002821
44643	14245961	-9.817958	-0.092263	-0.001152	-0.002843	-0.000916	0.002621
44644	14245986	-9.833252	-0.090679	0.003697	-0.002053	-0.001551	0.001593
44645	14246011	-9.822470	-0.089247	-0.049079	-0.003809	-0.001000	0.001143
44646	14246036	-9.830420	-0.105720	-0.039893	-0.002155	-0.003444	-0.007017
44647	14246061	-9.816337	-0.109423	0.001210	-0.000472	0.000732	-0.000776
44648	14246086	-9.812445	-0.106707	-0.016048	-0.006095	-0.003622	0.002290
44649	14246111	-9.837447	-0.094465	-0.004408	-0.010292	-0.002873	-0.005001
44650	14246136	-9.828715	-0.090504	-0.038029	-0.005294	-0.000973	-0.004168
44651	14246161	-9.838730	-0.089170	-0.038461	-0.005160	-0.000837	-0.001031
44652	14246186	-9.828722	-0.099321	-0.018342	-0.003108	-0.003131	-0.002265
44653	14246211	-9.842831	-0.104962	-0.035043	-0.004618	-0.002189	-0.002831
44654	14246236	-9.839725	-0.098126	-0.013532	-0.004821	0.000525	-0.001915
44655	14246261	-9.830845	-0.092048	0.000760	-0.002871	0.003725	-0.003189
44656	14246286	-9.841304	-0.082877	-0.020281	-0.004962	0.002781	-0.004981
44657	14246311	-9.856880	-0.085131	-0.038344	-0.004828	-0.001219	-0.001153
44658	14246336	-9.842913	-0.100230	-0.033151	-0.005575	-0.002269	-0.004560
44659	14246361	-9.847832	-0.096223	-0.013913	-0.005727	-0.002906	0.003007
44660	14246386	-9.819156	-0.104464	-0.013630	-0.011414	-0.001395	0.001164
44661	14246411	-9.827998	-0.124679	-0.007879	-0.007014	0.002542	-0.009152
44662	14246436	-9.848963	-0.111220	-0.033574	-0.003959	-0.002757	-0.004758
44663	14246461	-9.820616	-0.091338	-0.036147	-0.006343	-0.002143	-0.000969
44664	14246486	-9.826845	-0.095363	-0.022666	-0.005570	-0.001803	0.002818
44665	14246511	-9.830153	-0.095901	-0.026530	-0.002404	-0.000982	-0.002320
44666	14246536	-9.831339	-0.114403	-0.026494	-0.000557	-0.000495	-0.000399
44667	14246561	-9.828596	-0.112738	-0.014082	-0.006936	0.000289	-0.005193
44668	14246586	-9.814445	-0.101635	-0.013157	-0.012165	-0.002453	-0.005251
44669	14246611	-9.838438	-0.082284	-0.022144	-0.007474	-0.000748	-0.001720
44670	14246636	-9.842443	-0.102153	-0.026930	-0.004643	-0.000760	0.001347
44671	14246661	-9.832053	-0.093008	-0.032173	-0.008500	-0.007167	-0.005156
44672	14246686	-9.835313	-0.105565	-0.018839	-0.006138	-0.000401	-0.002883
44673	14246711	-9.833944	-0.097894	-0.024569	-0.005713	0.000185	-0.002879
44674	14246736	-9.840763	-0.090466	-0.015889	-0.003199	-0.002024	-0.000910
44675	14246761	-9.848422	-0.084292	-0.020681	-0.001742	-0.001545	0.000755
44676	14246786	-9.844435	-0.067415	-0.006798	-0.004804	-0.001866	-0.000073
44677	14246811	-9.838634	-0.105123	-0.020727	-0.004093	-0.000432	-0.003335
44678	14246836	-9.825838	-0.102123	-0.018417	-0.002852	0.001146	-0.000831
44679	14246861	-9.842728	-0.091725	-0.003016	-0.004506	0.002399	-0.005564
44680	14246886	-9.846889	-0.084525	-0.038459	-0.002602	0.001277	-0.001922
44681	14246911	-9.836082	-0.087717	-0.008273	-0.003530	-0.000036	-0.003527
44682	14246936	-9.835166	-0.091187	0.006089	-0.005540	0.001033	-0.001846
44683	14246961	-9.848106	-0.078377	-0.008168	-0.002909	-0.003318	-0.002071
44684	14246986	-9.840159	-0.089673	-0.037490	-0.005586	0.002320	-0.004275
44685	14247011	-9.849506	-0.108406	-0.029377	-0.003135	0.004242	-0.001328
44686	14247036	-9.850854	-0.101355	-0.056585	-0.000072	-0.001849	-0.000851
44687	14247061	-9.836191	-0.100951	-0.039873	-0.007513	-0.001132	0.001480
44688	14247086	-9.814978	-0.099313	-0.008806	-0.001553	-0.003810	-0.001949
44689	14247111	-9.831041	-0.093251	-0.040857	-0.004442	-0.003271	0.001715
44690	14247136	-9.830032	-0.100007	-0.036639	-0.006057	0.001150	-0.003262
44691	14247161	-9.831272	-0.118626	-0.029329	-0.003672	-0.003785	-0.002971
44692	14247186	-9.846608	-0.111227	-0.029739	-0.002199	-0.003822	-0.003357
44693	14247211	-9.836946	-0.082127	-0.034154	-0.006074	-0.002471	-0.003792
44694	14247236	-9.847318	-0.093266	-0.028365	-0.003317	-0.000548	-0.003983
44695	14247261	-9.816748	-0.103358	-0.021337	-0.006147	0.002059	-0.000878
44696	14247286	-9.824413	-0.102609	-0.015021	-0.006516	-0.000532	-0.001211
44697	14247311	-9.808797	-0.091865	-0.022392	-0.004193	0.005262	0.002079
44698	14247336	-9.810579	-0.095461	-0.033336	-0.003456	0.000171	0.002246
44699	14247361	-9.807247	-0.087182	-0.050570	-0.003052	-0.000933	-0.002383
44700	14247386	-9.850389	-0.070834	-0.038350	-0.000535	-0.005798	-0.003633
44701	14247411	-9.844677	-0.107740	-0.041359	-0.004537	0.003567	-0.005046
44702	14247436	-9.828967	-0.106528	-0.042836	-0.003213	0.002301	-0.001337
44703	14247461	-9.819090	-0.099408	-0.037118	-0.002262	0.000311	-0.002886
44704	14247486	-9.825230	-0.077568	-0.012682	-0.004216	0.001569	-0.003840
44705	14247511	-9.827499	-0.090533	-0.003459	-0.002880	-0.004549	-0.003618
44706	14247536	-9.838579	-0.078756	-0.006365	-0.010398	0.000618	-0.005367
44707	14247561	-9.808045	-0.107793	-0.033373	0.000405	0.001730	0.001535
44708	14247586	-9.842396	-0.075832	-0.011583	-0.002716	-0.000922	0.001086
44709	14247611	-9.840177	-0.102446	-0.009195	0.001334	-0.002016	-0.004001
44710	14247636	-9.835647	-0.118432	-0.017394	-0.004618	0.000010	-0.004041
44711	14247661	-9.831534	-0.106118	-0.012566	-0.010619	-0.002745	-0.003330
44712	14247686	-9.815264	-0.103697	-0.029917	-0.007692	-0.001974	-0.001094
44713	14247711	-9.845048	-0.082203	-0.032718	-0.009190	0.003099	-0.002788
44714	14247736	-9.839117	-0.106071	-0.018832	-0.004919	0.001757	-0.000697
44715	14247761	-9.829723	-0.089147	-0.030314	-0.000824	-0.004637	-0.002281
44716	14247786	-9.844377	-0.097833	-0.030330	-0.006358	0.003231	0.005862
44717	14247811	-9.848726	-0.097640	-0.021614	-0.002927	-0.002868	-0.002962
44718	14247836	-9.852868	-0.105592	-0.028775	-0.003275	-0.001830	-0.000331
44719	14247861	-9.849320	-0.112425	-0.049862	-0.003329	-0.004755	-0.006250
44720	14247886	-9.825331	-0.105882	-0.016051	-0.005281	0.003307	0.001176
44721	14247911	-9.833175	-0.074277	-0.042306	-0.001350	-0.001538	0.002035
44722	14247936	-9.829253	-0.083738	-0.041368	-0.007758	-0.001909	-0.000511
44723	14247961	-9.835249	-0.108800	-0.023653	-0.010192	0.000437	-0.000884
44724	14247986	-9.833831	-0.093604	-0.050405	-0.008082	-0.005536	0.002098
44725	14248011	-9.835766	-0.098194	-0.038479	-0.007801	0.001307	-0.005431
44726	14248036	-9.844172	-0.075558	-0.033594	-0.008890	-0.004651	-0.003536
44727	14248061	-9.849369	-0.083840	-0.021589	-0.006080	-0.004402	-0.001234
44728	14248086	-9.845936	-0.086024	-0.034574	-0.001837	-0.000846	-0.002767
44729	14248111	-9.832417	-0.082885	-0.071650	-0.003271	0.004303	-0.002162
44730	14248136	-9.825759	-0.086289	-0.062962	-0.003953	-0.000951	-0.004369
44731	14248161	-9.845961	-0.082600	-0.036947	-0.009720	-0.002587	0.000454
44732	14248186	-9.813971	-0.096217	-0.022310	-0.007014	-0.000803	0.000577
44733	14248211	-9.825582	-0.090927	-0.004910	-0.002590	-0.005186	-0.000481
44734	14248236	-9.827916	-0.091886	-0.010688	-0.003934	-0.001466	-0.004818
44735	14248261	-9.839291	-0.094305	-0.013502	-0.005810	-0.002660	-0.001164
44736	14248286	-9.814728	-0.080296	-0.008446	-0.001708	0.001685	-0.000574
44737	14248311	-9.827958	-0.078760	-0.030794	-0.005242	-0.002849	-0.004819
44738	14248336	-9.840004	-0.084152	0.004706	-0.008300	-0.003091	-0.003724
44739	14248361	-9.812302	-0.086537	-0.003615	-0.002167	-0.000398	-0.002319
44740	14248386	-9.829185	-0.096811	-0.026012	-0.003456	-0.002423	-0.003222
44741	14248411	-9.836424	-0.087895	-0.028841	-0.001182	-0.005427	-0.003240
44742	14248436	-9.818930	-0.121496	-0.016032	-0.006007	-0.002585	-0.000398
44743	14248461	-9.821833	-0.105026	-0.042361	-0.005209	-0.001290	-0.000843
44744	14248486	-9.814334	-0.102283	-0.026533	-0.008914	-0.005805	0.001392
44745	14248511	-9.843654	-0.079374	-0.030716	-0.001192	-0.006965	-0.000432
44746	14248536	-9.830481	-0.108730	-0.023163	-0.003764	-0.000487	-0.001413
44747	14248561	-9.844947	-0.096645	-0.019295	-0.003238	0.003397	0.001112
44748	14248586	-9.819184	-0.137107	-0.023738	-0.001885	0.004707	-0.004797
44749	14248611	-9.820895	-0.114374	-0.021726	-0.003380	-0.002940	-0.004318
44750	14248636	-9.815365	-0.093239	-0.033286	-0.005615	-0.002848	-0.001682
44751	14248661	-9.823972	-0.131339	-0.028427	-0.004922	-0.002190	-0.000010
44752	14248686	-9.838544	-0.107353	-0.031670	-0.004992	-0.006524	-0.003111
44753	14248711	-9.832168	-0.123371	-0.028919	-0.006665	0.000110	-0.002241
44754	14248736	-9.832369	-0.101426	-0.040928	-0.001551	0.002326	-0.003013
44755	14248761	-9.825241	-0.109118	-0.022660	-0.006461	-0.002338	-0.000006
44756	14248786	-9.835034	-0.085943	-0.026457	-0.006127	-0.004727	0.001006
44757	14248811	-9.824878	-0.101641	-0.018873	-0.002858	-0.000668	0.000122
44758	14248836	-9.832573	-0.088739	-0.032204	-0.007319	-0.003718	-0.002448
44759	14248861	-9.829383	-0.120187	-0.023630	-0.007088	-0.003140	-0.006101
44760	14248886	-9.820347	-0.118094	-0.026067	-0.007641	-0.001729	-0.004621
44761	14248911	-9.831039	-0.093378	-0.040886	-0.003968	-0.000629	-0.006610
44762	14248936	-9.825081	-0.083994	-0.022683	-0.007196	-0.001384	-0.000958
44763	14248961	-9.833497	-0.094554	-0.024512	-0.009854	-0.006542	-0.001623
44764	14248986	-9.837359	-0.095661	-0.015465	-0.003047	-0.000861	-0.001290
44765	14249011	-9.824014	-0.098405	-0.010729	-0.001985	-0.001942	0.000560
44766	14249036	-9.830868	-0.073483	-0.031747	-0.003512	-0.002161	0.000633
44767	14249061	-9.806983	-0.078952	-0.031429	-0.005005	-0.000066	-0.004616
44768	14249086	-9.865342	-0.061248	-0.028289	-0.002609	0.001206	-0.004996
44769	14249111	-9.816283	-0.129580	-0.042854	-0.002430	0.000124	0.001216
44770	14249136	-9.847908	-0.090672	-0.014476	-0.005072	0.000131	-0.005132
44771	14249161	-9.819208	-0.098311	-0.019893	-0.010771	0.001962	-0.007989
44772	14249186	-9.825860	-0.095853	-0.026503	-0.003119	-0.005007	-0.004262
44773	14249211	-9.846049	-0.076939	-0.034071	-0.007278	-0.002936	-0.000581
44774	14249236	-9.814547	-0.092097	-0.015114	-0.004883	0.002329	-0.004217
44775	14249261	-9.835583	-0.081768	-0.022615	-0.005823	-0.004143	-0.000337
44776	14249286	-9.830809	-0.119105	-0.026985	-0.006479	-0.001694	0.001086
44777	14249311	-9.830767	-0.082528	-0.027448	-0.007500	-0.003710	0.002684
44778	14249336	-9.834003	-0.099444	-0.013622	-0.005233	0.003693	-0.000492
44779	14249361	-9.827196	-0.103944	-0.024562	-0.009631	-0.003307	-0.001220
44780	14249386	-9.835071	-0.128927	-0.008230	-0.006805	-0.003314	0.001851
44781	14249411	-9.841746	-0.121662	-0.025035	-0.011753	0.001121	-0.000870
44782	14249436	-9.844703	-0.115611	-0.018801	-0.002846	0.001019	0.000644
44783	14249461	-9.834200	-0.117346	-0.020224	-0.009258	-0.000580	0.001107
44784	14249486	-9.819716	-0.095395	-0.018414	-0.003137	-0.001895	0.000818
44785	14249511	-9.810472	-0.105495	-0.031387	-0.004421	-0.002043	0.000179
44786	14249536	-9.822498	-0.103584	-0.015465	-0.001277	-0.006653	-0.004017
44787	14249561	-9.836131	-0.111584	-0.026908	-0.005645	-0.006013	-0.000668
44788	14249586	-9.840166	-0.095566	-0.025499	-0.002794	-0.000988	-0.001541
44789	14249611	-9.819078	-0.112089	-0.012168	-0.010133	-0.001697	-0.001344
44790	14249636	-9.827155	-0.112123	-0.014064	-0.002016	-0.003032	0.002414
44791	14249661	-9.831452	-0.102453	-0.033702	-0.001866	0.000063	-0.002633
44792	14249686	-9.831649	-0.087265	-0.032285	-0.005476	0.001037	-0.000887
44793	14249711	-9.817950	-0.083064	-0.021293	-0.003685	-0.001402	-0.005780
44794	14249736	-9.815770	-0.096467	-0.040528	-0.005183	0.001746	-0.003065
44795	14249761	-9.825766	-0.069382	-0.017486	-0.004852	0.003760	-0.000808
44796	14249786	-9.857159	-0.069725	-0.023966	-0.002366	-0.002474	-0.005080
44797	14249811	-9.822189	-0.088817	-0.016952	-0.007001	-0.003453	-0.000978
44798	14249836	-9.853971	-0.092327	-0.030709	-0.001152	-0.001924	0.000499
44799	14249861	-9.818649	-0.087728	-0.054328	-0.004852	-0.004739	-0.003032
44800	14249886	-9.820324	-0.078082	-0.033774	-0.000469	0.000814	-0.001472
44801	14249911	-9.819293	-0.089124	-0.023686	-0.005195	0.000414	-0.000370
44802	14249936	-9.825868	-0.108574	0.002223	-0.008674	0.001128	-0.001125
44803	14249961	-9.830481	-0.079100	-0.007794	-0.003076	-0.002077	-0.002635
44804	14249986	-9.835970	-0.093758	-0.014569	-0.003067	0.001995	-0.002168
44805	14250011	-9.824491	-0.096889	-0.015528	-0.003862	0.000958	0.000656
44806	14250036	-9.828536	-0.081480	-0.008335	0.000128	-0.000146	-0.004365
44807	14250061	-9.817237	-0.097557	-0.029926	-0.001635	-0.002757	0.000626
44808	14250086	-9.827799	-0.100348	-0.011223	-0.003585	0.000179	0.000320
44809	14250111	-9.831284	-0.109848	-0.046595	-0.002658	-0.003362	-0.003025
44810	14250136	-9.841721	-0.088120	-0.019269	-0.009294	-0.002065	-0.006337
44811	14250161	-9.834128	-0.093923	-0.001597	-0.006260	0.001881	0.001307
44812	14250186	-9.858406	-0.081939	-0.028728	-0.009826	-0.005227	-0.000067
44813	14250211	-9.840430	-0.102306	-0.044707	-0.000905	0.000626	0.003590
44814	14250236	-9.844089	-0.079259	-0.039335	-0.005165	-0.004567	0.000818
44815	14250261	-9.828671	-0.089796	-0.046102	-0.011827	-0.006743	0.001082
44816	14250286	-9.821129	-0.091492	-0.029426	-0.010659	-0.003053	-0.000957
44817	14250311	-9.804850	-0.090534	-0.047316	-0.007966	0.002684	-0.003946
44818	14250336	-9.829074	-0.107773	-0.022160	-0.004004	-0.002737	0.000635
44819	14250361	-9.818334	-0.082713	-0.037574	-0.008629	-0.002298	0.001927
44820	14250386	-9.838325	-0.090260	-0.023555	-0.001667	-0.003919	0.000691
44821	14250411	-9.807372	-0.094353	-0.016072	-0.004502	-0.001393	-0.001156
44822	14250436	-9.825855	-0.093342	-0.033711	-0.001110	-0.001264	-0.001486
44823	14250461	-9.847080	-0.090822	0.006141	-0.004217	0.002308	0.002332
44824	14250486	-9.847564	-0.077214	-0.020697	-0.005904	0.000526	-0.001785
44825	14250511	-9.847868	-0.064328	0.004196	-0.005506	0.002146	-0.003245
44826	14250536	-9.839731	-0.097145	-0.015495	-0.004676	0.004229	-0.002980
44827	14250561	-9.839320	-0.087060	-0.024095	-0.004369	0.002487	-0.002739
44828	14250586	-9.825103	-0.087061	-0.013596	-0.007649	-0.001258	-0.004482
44829	14250611	-9.844565	-0.094478	-0.006802	-0.011037	0.000888	-0.001635
44830	14250636	-9.809552	-0.110512	-0.015593	-0.003758	-0.000735	-0.003146
44831	14250661	-9.820525	-0.102884	-0.027938	-0.002438	-0.004335	-0.004897
44832	14250686	-9.818435	-0.084940	-0.017034	-0.003801	0.003086	-0.000623
44833	14250711	-9.818892	-0.083962	-0.021719	-0.010258	-0.005950	-0.003792
44834	14250736	-9.818214	-0.108352	-0.004506	-0.007986	-0.002286	0.002058
44835	14250761	-9.836559	-0.081924	-0.017848	-0.004743	-0.002113	-0.004752
44836	14250786	-9.854977	-0.092463	-0.023947	-0.003923	-0.003773	-0.003347
44837	14250811	-9.841717	-0.117168	-0.038485	-0.006561	0.003234	-0.001122
44838	14250836	-9.828955	-0.110873	-0.036173	0.000906	0.004071	-0.000565
44839	14250861	-9.841119	-0.100999	-0.014021	-0.007586	0.002682	-0.007471
44840	14250886	-9.851090	-0.103499	-0.013455	-0.001892	-0.003088	-0.003220
44841	14250911	-9.825659	-0.074490	-0.025123	-0.002734	0.001682	0.000143
44842	14250936	-9.817809	-0.121530	-0.043319	-0.003298	-0.000846	0.000386
44843	14250961	-9.841103	-0.084276	-0.051873	-0.004052	0.000426	-0.002490
44844	14250986	-9.834486	-0.096050	-0.018341	-0.002328	-0.001220	-0.001094
44845	14251011	-9.842174	-0.076818	-0.045152	-0.002815	-0.002404	-0.006035
44846	14251036	-9.825336	-0.097096	-0.032816	0.000516	0.002322	0.000973
44847	14251061	-9.833246	-0.080884	-0.018858	-0.001590	0.003831	-0.002223
44848	14251086	-9.833215	-0.081305	-0.022181	-0.002411	-0.002842	-0.004053
44849	14251111	-9.839928	-0.069251	-0.038429	-0.003380	-0.002147	0.000122
44850	14251136	-9.816462	-0.073008	-0.051014	-0.001229	-0.003460	0.001261
44851	14251161	-9.816502	-0.087343	-0.017490	-0.003409	0.000307	-0.003840
44852	14251186	-9.820024	-0.068787	-0.024191	-0.008518	0.001766	-0.004779
44853	14251211	-9.837060	-0.085380	-0.008812	-0.013658	0.002648	-0.003995
44854	14251236	-9.841053	-0.102316	-0.020202	-0.005119	-0.002375	-0.003596
44855	14251261	-9.828073	-0.074617	-0.017890	-0.005628	-0.002116	0.000575
44856	14251286	-9.835786	-0.061726	-0.032730	-0.001770	-0.000700	-0.003850
44857	14251311	-9.830702	-0.082392	-0.039886	-0.004771	-0.004944	0.000688
44858	14251336	-9.833556	-0.097576	-0.010176	-0.003774	-0.002144	-0.000133
44859	14251361	-9.844083	-0.086125	-0.023530	-0.005226	-0.004499	0.001590
44860	14251386	-9.813063	-0.098792	-0.010308	-0.002417	-0.000645	-0.003786
44861	14251411	-9.827762	-0.092447	-0.034711	-0.006375	0.001030	-0.003895
44862	14251436	-9.834218	-0.118339	-0.015483	-0.003630	0.001805	0.000723
44863	14251461	-9.825409	-0.097847	-0.017889	-0.002061	-0.001669	-0.000265
44864	14251486	-9.835852	-0.094970	-0.031807	-0.005612	0.001238	-0.003001
44865	14251511	-9.818130	-0.101298	-0.034256	-0.006507	0.001420	-0.001968
44866	14251536	-9.805369	-0.098987	-0.022349	-0.006768	-0.000657	-0.003009
44867	14251561	-9.828043	-0.101252	-0.047601	-0.007264	-0.003184	-0.001802
44868	14251586	-9.850804	-0.074633	-0.040329	-0.012292	-0.000307	-0.005940
44869	14251611	-9.835855	-0.100883	-0.016856	-0.003147	-0.004151	-0.005658
44870	14251636	-9.841949	-0.107029	-0.019699	-0.003472	-0.003691	-0.000846
44871	14251661	-9.815568	-0.114559	-0.033258	-0.005014	-0.003268	0.000504
44872	14251686	-9.821420	-0.110113	-0.022178	-0.009468	-0.006714	-0.004375
44873	14251711	-9.842384	-0.111322	-0.018267	-0.003016	-0.001553	0.000320
44874	14251736	-9.808573	-0.106119	-0.028004	-0.003439	-0.003387	-0.008479
44875	14251761	-9.848309	-0.089896	-0.027827	-0.001736	-0.003991	-0.000724
44876	14251786	-9.842067	-0.090238	-0.034539	-0.006312	-0.005236	-0.003989
44877	14251811	-9.836030	-0.079744	-0.031271	-0.006649	-0.000203	-0.000240
44878	14251836	-9.827858	-0.086241	-0.031337	-0.003953	-0.000399	0.001478
44879	14251861	-9.851331	-0.080083	-0.022100	-0.002113	0.002338	-0.000174
44880	14251886	-9.825061	-0.089383	-0.015480	-0.004221	-0.000484	-0.004353
44881	14251911	-9.831083	-0.060828	-0.023163	-0.002812	-0.000003	-0.000316
44882	14251936	-9.851122	-0.065077	-0.008247	-0.004995	0.002553	-0.000039
44883	14251961	-9.813328	-0.110877	-0.021852	-0.002986	0.003882	0.003615
44884	14251986	-9.829760	-0.087235	-0.029910	-0.005105	0.001906	0.001304
44885	14252011	-9.812574	-0.091411	-0.027530	-0.008114	-0.002813	-0.003719
44886	14252036	-9.838915	-0.082297	-0.022592	-0.005017	-0.005531	-0.001751
44887	14252061	-9.812884	-0.092942	-0.051044	-0.004904	-0.001074	-0.004171
44888	14252086	-9.806877	-0.090859	-0.023273	-0.004150	-0.002086	0.001533
44889	14252111	-9.830296	-0.091835	-0.009752	-0.006090	-0.001730	0.000386
44890	14252136	-9.813499	-0.096253	-0.021330	-0.006989	0.000308	-0.001842
44891	14252161	-9.826576	-0.108908	-0.039955	-0.009549	0.000203	-0.002411
44892	14252186	-9.848398	-0.051217	-0.013437	-0.007130	-0.005051	0.001018
44893	14252211	-9.817354	-0.097407	-0.012672	-0.012161	-0.000367	-0.003694
44894	14252236	-9.828197	-0.109941	-0.006870	-0.005710	0.000069	-0.004607
44895	14252261	-9.847564	-0.082074	-0.010549	-0.004549	-0.003970	-0.000909
44896	14252286	-9.830207	-0.098970	-0.010719	-0.006540	0.000514	0.000396
44897	14252311	-9.820682	-0.087116	-0.034728	-0.001889	0.001048	-0.001854
44898	14252336	-9.826917	-0.090254	-0.019770	-0.000401	-0.005387	-0.000285
44899	14252361	-9.831041	-0.101121	-0.025047	-0.003061	-0.004590	-0.001302
44900	14252386	-9.833026	-0.105741	-0.003455	-0.006786	-0.004268	-0.001550
44901	14252411	-9.849131	-0.073173	-0.005823	-0.007097	-0.000077	0.000396
44902	14252436	-9.844017	-0.091348	-0.024999	-0.003533	0.000238	-0.001852
44903	14252461	-9.851122	-0.097663	-0.019715	-0.002046	0.000142	-0.000517
44904	14252486	-9.827185	-0.117114	0.000815	-0.007065	-0.000976	0.002065
44905	14252511	-9.826016	-0.114566	-0.042879	-0.003707	0.001855	-0.002424
44906	14252536	-9.830523	-0.111302	-0.010638	-0.004891	-0.003524	-0.001292
44907	14252561	-9.810822	-0.115993	-0.030463	-0.001401	-0.000304	-0.002764
44908	14252586	-9.833930	-0.086111	-0.051962	-0.001983	0.003819	-0.006069
44909	14252611	-9.812671	-0.111947	-0.047645	-0.006756	-0.003105	-0.000647
44910	14252636	-9.857291	-0.098675	-0.020673	-0.009172	0.000729	-0.001450
44911	14252661	-9.835714	-0.105850	-0.029889	-0.003164	0.003231	0.001046
44912	14252686	-9.820520	-0.098906	-0.035174	-0.002915	-0.000711	0.001544
44913	14252711	-9.839648	-0.107198	-0.007656	-0.004551	-0.007921	-0.000677
44914	14252736	-9.836679	-0.107403	-0.025515	-0.005764	-0.002323	-0.005899
44915	14252761	-9.839696	-0.091161	-0.031736	-0.007120	-0.001433	0.000393
44916	14252786	-9.839010	-0.101864	-0.045602	-0.005700	-0.002055	-0.001216
44917	14252811	-9.813847	-0.093422	-0.046688	-0.007415	-0.004210	0.003198
44918	14252836	-9.813039	-0.125928	-0.037133	-0.010812	-0.000668	-0.005177
44919	14252861	-9.822899	-0.104337	-0.026488	-0.005728	-0.005417	-0.002646
44920	14252886	-9.840794	-0.084159	-0.020691	-0.002132	-0.002818	0.005439
44921	14252911	-9.829908	-0.082300	-0.013598	-0.006317	-0.000446	0.001036
44922	14252936	-9.839278	-0.081994	-0.041796	0.000080	-0.000665	-0.002256
44923	14252961	-9.796685	-0.095604	-0.047252	0.000018	-0.004736	-0.000419
44924	14252986	-9.822178	-0.088737	-0.020826	-0.008737	0.001124	-0.001130
44925	14253011	-9.838467	-0.082405	-0.016857	-0.006220	-0.002199	-0.004677
44926	14253036	-9.825146	-0.085189	-0.008762	-0.003710	-0.004157	-0.001557
44927	14253061	-9.820169	-0.091850	-0.030457	-0.008418	0.001332	0.003166
44928	14253086	-9.833317	-0.080121	-0.007784	-0.006767	-0.001048	-0.005375
44929	14253111	-9.824186	-0.076854	-0.026505	-0.006357	-0.003751	-0.003664
44930	14253136	-9.849565	-0.076547	-0.005850	-0.005127	0.002021	-0.005428
44931	14253161	-9.843368	-0.071999	-0.017863	-0.008041	0.001127	-0.003505
44932	14253186	-9.823672	-0.091923	-0.003033	-0.004539	-0.002490	-0.003663
44933	14253211	-9.832144	-0.101531	-0.000163	-0.008650	0.000221	-0.000753
44934	14253236	-9.824234	-0.110481	-0.027462	-0.002721	-0.002839	0.000824
44935	14253261	-9.846759	-0.099389	-0.028309	-0.007077	-0.003116	-0.002119
44936	14253286	-9.829580	-0.103010	-0.025530	-0.007179	-0.003891	-0.001289
44937	14253311	-9.823148	-0.107454	0.019988	-0.003904	-0.004292	-0.003096
44938	14253336	-9.816152	-0.115278	-0.016029	-0.007740	-0.002213	0.001092
44939	14253361	-9.816063	-0.130219	-0.001665	-0.007802	-0.000277	0.000457
44940	14253386	-9.819622	-0.094590	-0.034709	-0.002198	-0.000693	0.005198
44941	14253411	-9.834176	-0.089141	-0.004461	-0.008777	0.000283	-0.001070
44942	14253436	-9.835350	-0.106583	-0.010198	-0.004227	0.002371	-0.000168
44943	14253461	-9.849529	-0.073517	-0.017781	0.002818	-0.002110	-0.004126
44944	14253486	-9.844494	-0.055322	-0.022170	-0.003828	0.001790	-0.000367
44945	14253511	-9.805971	-0.086501	-0.025664	0.000465	-0.002256	0.002807
44946	14253536	-9.823966	-0.063251	-0.013559	-0.003034	-0.005175	0.000294
44947	14253561	-9.858603	-0.103762	-0.028757	-0.005218	-0.002818	0.001344
44948	14253586	-9.842157	-0.077224	-0.047031	-0.005734	-0.002836	-0.000514
44949	14253611	-9.843617	-0.090477	-0.017317	-0.004408	-0.000219	-0.000629
44950	14253636	-9.863318	-0.068155	-0.030643	-0.004789	-0.003900	0.004932
44951	14253661	-9.841548	-0.060985	-0.024072	-0.003670	-0.001574	-0.005005
44952	14253686	-9.805846	-0.089193	-0.042001	-0.006202	0.001809	-0.001521
44953	14253711	-9.840780	-0.079268	-0.035503	-0.004379	-0.003587	-0.003149
44954	14253736	-9.831123	-0.086248	-0.040387	-0.002351	-0.002714	-0.003666
44955	14253761	-9.820313	-0.081467	-0.027464	-0.004110	-0.003508	0.001463
44956	14253786	-9.807227	-0.105262	-0.016521	-0.005090	-0.003275	-0.003664
44957	14253811	-9.843898	-0.088525	-0.051806	-0.007933	-0.002092	-0.000761
44958	14253836	-9.827680	-0.064515	-0.026055	-0.003868	-0.000918	0.000769
44959	14253861	-9.840309	-0.075394	-0.042278	-0.006458	-0.000523	-0.003900
44960	14253886	-9.838140	-0.102589	-0.029353	-0.006318	-0.000647	-0.000888
44961	14253911	-9.830503	-0.097092	-0.044241	-0.005664	-0.001416	-0.006153
44962	14253936	-9.824199	-0.075420	-0.027466	-0.009377	-0.003222	-0.003266
44963	14253961	-9.837543	-0.112018	-0.031255	-0.005342	-0.003274	-0.001353
44964	14253986	-9.826433	-0.099529	-0.002033	-0.002323	-0.005360	0.000420
44965	14254011	-9.837872	-0.066110	0.009967	-0.004874	-0.001515	0.001349
44966	14254036	-9.819001	-0.118696	-0.010206	-0.006737	-0.005618	0.001717
44967	14254061	-9.832962	-0.114370	0.004688	-0.008082	-0.003117	0.004809
44968	14254086	-9.849733	-0.103625	-0.000949	-0.000769	-0.003843	-0.000083
44969	14254111	-9.826159	-0.083392	-0.002063	-0.003755	-0.004606	0.000046
44970	14254136	-9.870074	-0.109423	-0.012387	-0.011028	-0.001766	-0.003444
44971	14254161	-9.836666	-0.111303	-0.018768	-0.007504	-0.004028	-0.002830
44972	14254186	-9.832466	-0.109921	-0.007389	-0.010882	0.004387	0.000052
44973	14254211	-9.834343	-0.107449	-0.017912	-0.005823	0.002144	-0.001454
44974	14254236	-9.834933	-0.095510	-0.023144	-0.008768	0.000151	0.000468
44975	14254261	-9.816247	-0.101362	-0.028991	-0.007211	-0.000595	0.000776
44976	14254286	-9.823883	-0.134046	-0.037168	-0.005512	0.004481	0.001892
44977	14254311	-9.812336	-0.109376	-0.030459	-0.006007	0.001425	-0.004470
44978	14254336	-9.830438	-0.107722	-0.032217	-0.001514	-0.003159	-0.005527
44979	14254361	-9.821866	-0.114414	-0.020821	-0.006114	0.000708	-0.005248
44980	14254386	-9.820187	-0.104663	-0.000214	-0.004473	-0.000088	0.002311
44981	14254411	-9.835702	-0.066385	-0.033636	-0.006178	-0.002895	0.001284
44982	14254436	-9.836102	-0.078500	-0.022102	-0.001992	-0.006071	-0.003429
44983	14254461	-9.831654	-0.083413	-0.039381	-0.007987	-0.007081	-0.005212
44984	14254486	-9.836984	-0.082685	-0.025971	-0.008467	-0.003652	-0.001796
44985	14254511	-9.838449	-0.081860	-0.020228	-0.003842	-0.002027	-0.001673
44986	14254536	-9.855348	-0.062564	-0.023516	-0.005397	-0.001405	-0.002299
44987	14254561	-9.851247	-0.063216	-0.068606	-0.006302	0.001232	0.001177
44988	14254586	-9.810591	-0.088199	-0.046203	-0.003225	-0.003043	0.000632
44989	14254611	-9.871465	-0.063532	-0.032539	-0.006716	-0.004135	0.001213
44990	14254636	-9.834349	-0.071489	-0.011129	-0.005980	-0.002901	0.001469
44991	14254661	-9.833336	-0.107246	-0.027416	-0.001809	-0.003269	0.001976
44992	14254686	-9.834963	-0.103906	-0.001132	-0.001852	0.002147	-0.000113
44993	14254711	-9.840857	-0.084852	-0.012612	-0.007981	0.003327	-0.004067
44994	14254736	-9.841943	-0.072461	-0.014448	-0.004083	-0.002217	0.001471
44995	14254761	-9.836078	-0.085724	-0.010189	-0.003365	-0.002848	0.000955
44996	14254786	-9.819625	-0.105943	-0.014623	-0.005998	0.003165	-0.006127
44997	14254811	-9.802556	-0.100493	-0.012267	-0.004956	-0.001265	-0.001219
44998	14254836	-9.823197	-0.087513	-0.011206	-0.007701	0.000426	-0.002992
44999	14254861	-9.805817	-0.104233	-0.016134	-0.004050	0.000888	0.001097
45000	14254886	-9.819156	-0.107384	-0.009327	-0.005600	-0.000821	0.001670
45001	14254911	-9.844206	-0.095729	0.012439	-0.001448	-0.005084	-0.004263
45002	14254936	-9.830642	-0.103745	-0.006354	-0.009124	-0.003015	0.000583
45003	14254961	-9.822221	-0.085858	-0.016958	-0.004531	-0.001961	0.004937
45004	14254986	-9.834552	-0.097659	-0.004463	-0.006203	0.002074	0.001565
45005	14255011	-9.848827	-0.098303	-0.004845	-0.001411	-0.001983	-0.001100
45006	14255036	-9.835887	-0.103376	-0.007335	-0.008842	0.000280	-0.000881
45007	14255061	-9.834730	-0.079011	-0.013592	-0.008011	0.002694	0.001252
45008	14255086	-9.819172	-0.107432	-0.006917	-0.007173	0.000051	-0.002933
45009	14255111	-9.857183	-0.077054	-0.005304	-0.005588	-0.001271	0.001095
45010	14255136	-9.821963	-0.097473	-0.038622	-0.005887	0.006412	-0.000338
45011	14255161	-9.815208	-0.076996	-0.016482	-0.003543	-0.004104	-0.008932
45012	14255186	-9.847397	-0.089017	-0.022555	-0.006729	-0.004141	-0.002314
45013	14255211	-9.827399	-0.114522	-0.047602	-0.007069	-0.001244	-0.001404
45014	14255236	-9.850793	-0.077958	-0.037509	-0.001895	0.005312	-0.003943
45015	14255261	-9.838444	-0.069603	-0.046118	-0.004910	-0.000690	-0.000635
45016	14255286	-9.838736	-0.096035	-0.022662	-0.000018	-0.001439	-0.000973
45017	14255311	-9.849530	-0.075912	-0.013017	-0.001024	-0.000034	-0.000447
45018	14255336	-9.813606	-0.083228	-0.029470	-0.002617	-0.001925	0.003327
45019	14255361	-9.824437	-0.072870	-0.071125	-0.003330	-0.002018	-0.002570
45020	14255386	-9.842525	-0.056648	-0.029315	-0.005168	-0.002894	-0.005582
45021	14255411	-9.830200	-0.095043	-0.019800	-0.006738	0.000380	-0.001135
45022	14255436	-9.810946	-0.103120	-0.036185	-0.006737	-0.001822	-0.004810
45023	14255461	-9.846084	-0.086924	-0.009170	-0.004289	-0.000423	-0.004223
45024	14255486	-9.846352	-0.065045	-0.010157	-0.004406	-0.000489	-0.005513
45025	14255511	-9.840089	-0.098763	-0.031291	-0.000381	0.002114	-0.002360
45026	14255536	-9.849173	-0.093132	-0.034497	0.001404	-0.005870	0.000027
45027	14255561	-9.846926	-0.085153	-0.028820	0.000221	-0.004791	-0.000542
45028	14255586	-9.826737	-0.093214	-0.044256	-0.005370	-0.002503	-0.002381
45029	14255611	-9.822589	-0.093512	-0.021225	-0.006661	-0.003952	-0.001162
45030	14255636	-9.828645	-0.113791	-0.003053	-0.002824	0.000258	-0.001918
45031	14255661	-9.840362	-0.114489	-0.030788	-0.001800	0.000079	-0.004363
45032	14255686	-9.844707	-0.085977	-0.003863	-0.006603	-0.006083	-0.003994
45033	14255711	-9.847694	-0.109600	-0.011595	-0.007547	0.001922	-0.000675
45034	14255736	-9.825085	-0.103625	0.017551	-0.003628	-0.000665	-0.003013
45035	14255761	-9.838057	-0.085911	0.000895	0.000048	-0.003439	0.000872
45036	14255786	-9.832108	-0.097490	-0.014100	0.000347	0.001349	0.000459
45037	14255811	-9.842700	-0.126123	-0.014019	-0.001639	0.001442	-0.001211
45038	14255836	-9.794748	-0.112180	-0.019570	-0.004685	0.004418	-0.001897
45039	14255861	-9.827399	-0.093175	-0.013135	0.001225	0.002138	0.000200
45040	14255886	-9.829628	-0.095276	-0.035204	-0.001898	0.003435	-0.001138
