// General information: 
//  MT Manager version: 2022.0.0 
//  XDA version: 2022.0.0 build 7085 rev 119802 built on 2022-11-08
// Device information: 
//  DeviceId: 037004D1
//  ProductCode: MTi-300-2A5G4
//  Firmware Version: 1.4.1
//  Hardware Version: 2.1.0
// Device settings: 
//  Filter Profile: general(39.16)
//  Option Flags: Orientation Smoother Disabled, Position/Velocity Smoother Disabled, Continuous Zero Rotation Update Disabled, AHS Disabled, ICC Disabled
// Coordinate system: ENU
PacketCounter	SampleTimeFine	Acc_X	Acc_Y	Acc_Z	Gyr_X	Gyr_Y	Gyr_Z
03140	11569986	-0.035662	0.039182	-9.800785	-0.007460	-0.001235	-0.004011
03141	11570011	-0.033265	0.048498	-9.820926	-0.006233	0.000997	0.001511
03142	11570036	-0.052616	0.044796	-9.842878	-0.004950	-0.001113	0.003102
03143	11570061	-0.042305	0.046343	-9.816086	0.001174	0.001313	-0.001393
03144	11570086	-0.039318	0.073107	-9.822821	-0.003505	-0.002977	-0.005509
03145	11570111	-0.026408	0.032559	-9.825283	-0.005232	-0.002554	0.000396
03146	11570136	-0.053977	0.056476	-9.802615	-0.005127	-0.001435	0.003999
03147	11570161	-0.027628	0.048378	-9.808027	-0.003767	-0.000316	0.000788
03148	11570186	-0.014457	0.057909	-9.801865	-0.003518	-0.000124	-0.000429
03149	11570211	-0.034863	0.058300	-9.812773	-0.001000	-0.000530	0.002965
03150	11570236	-0.030936	0.061519	-9.830527	-0.006355	0.004800	-0.000711
03151	11570261	-0.013880	0.045967	-9.794664	-0.003166	-0.001152	-0.001137
03152	11570286	-0.023750	0.046220	-9.819072	-0.006196	-0.002566	-0.001523
03153	11570311	-0.028642	0.061469	-9.828633	-0.003359	-0.001489	-0.005244
03154	11570336	-0.006533	0.033826	-9.801417	-0.006568	-0.001225	-0.006008
03155	11570361	-0.037727	0.051594	-9.806047	-0.008522	-0.001828	0.000091
03156	11570386	-0.034951	0.028398	-9.809410	-0.004737	0.001980	-0.002530
03157	11570411	-0.037020	0.042834	-9.826189	-0.005694	-0.000693	-0.004010
03158	11570436	-0.032445	0.058986	-9.824287	-0.004919	-0.000542	-0.002734
03159	11570461	-0.006844	0.024975	-9.811950	-0.005867	-0.000806	0.000983
03160	11570486	-0.006876	0.033241	-9.828734	-0.001201	-0.000864	-0.001720
03161	11570511	-0.000342	0.032066	-9.802394	-0.009930	-0.001329	0.004330
03162	11570536	-0.007255	0.026643	-9.826332	-0.007255	0.000450	-0.000738
03163	11570561	-0.007336	0.031250	-9.820580	-0.005308	-0.002152	0.001550
03164	11570586	-0.004687	0.039014	-9.803331	0.000124	0.000399	0.002775
03165	11570611	-0.000624	0.034931	-9.839308	-0.003015	-0.001869	-0.001466
03166	11570636	-0.020577	0.025560	-9.829622	-0.007096	-0.000779	-0.003752
03167	11570661	0.007792	0.043422	-9.828806	-0.002407	-0.001147	-0.003326
03168	11570686	-0.040245	0.044314	-9.830963	-0.005737	0.003390	0.000498
03169	11570711	-0.011589	0.036658	-9.833497	-0.007568	0.002581	-0.000851
03170	11570736	-0.017833	0.026703	-9.810466	-0.005612	0.000995	-0.003232
03171	11570761	-0.029022	0.056712	-9.828621	-0.004284	0.002392	0.004527
03172	11570786	-0.024835	0.029871	-9.840137	-0.001101	-0.001827	-0.000252
03173	11570811	-0.010239	0.034652	-9.826315	-0.004272	-0.002651	0.001805
03174	11570836	-0.043100	0.051238	-9.853477	-0.004442	0.000499	-0.001191
03175	11570861	-0.024916	0.053114	-9.800361	-0.010732	-0.000770	-0.001305
03176	11570886	-0.021966	0.051254	-9.809971	-0.001945	-0.002997	0.002573
03177	11570911	-0.038238	0.065979	-9.820437	-0.003044	0.002646	-0.006498
03178	11570936	-0.015001	0.034022	-9.819097	-0.006069	0.001773	-0.000086
03179	11570961	-0.014348	0.022015	-9.816700	0.000590	0.003833	0.001757
03180	11570986	-0.022652	0.042371	-9.819049	0.001034	0.007698	-0.005205
03181	11571011	-0.003113	0.043069	-9.840737	-0.009140	-0.001007	-0.003363
03182	11571036	-0.017745	0.038563	-9.844500	-0.001627	0.000943	-0.000110
03183	11571061	-0.010425	0.023556	-9.847403	-0.003402	0.000003	-0.002348
03184	11571086	-0.027525	0.040192	-9.803218	-0.003465	0.001994	-0.005871
03185	11571111	-0.036697	0.019947	-9.824258	0.004219	0.000073	-0.001021
03186	11571136	-0.029348	0.032699	-9.809446	-0.003678	0.000310	-0.006191
03187	11571161	-0.009640	0.033823	-9.837336	-0.002538	0.001377	0.001055
03188	11571186	-0.022556	0.025204	-9.811390	-0.001331	0.001656	-0.000423
03189	11571211	-0.013575	0.036443	-9.823906	-0.004411	0.001334	-0.005288
03190	11571236	-0.020800	0.044889	-9.816675	-0.012910	0.003254	-0.003979
03191	11571261	-0.039620	0.056377	-9.813235	-0.008126	-0.002216	-0.001198
03192	11571286	-0.021606	0.038044	-9.840166	-0.006238	-0.000942	0.002459
03193	11571311	-0.005645	0.011330	-9.821063	-0.004098	-0.000004	0.001559
03194	11571336	-0.026030	0.004160	-9.833897	-0.003132	-0.004390	-0.001155
03195	11571361	-0.029870	0.038543	-9.816157	-0.007187	-0.003946	-0.005245
03196	11571386	-0.029113	0.031770	-9.842992	-0.002682	0.002091	0.000286
03197	11571411	-0.047682	0.048517	-9.804094	-0.004105	-0.001626	-0.000750
03198	11571436	-0.024626	0.040151	-9.825289	-0.004664	-0.004740	-0.003654
03199	11571461	-0.024225	0.002976	-9.815222	-0.004467	-0.003000	-0.005379
03200	11571486	-0.031664	0.033812	-9.820454	-0.009643	-0.000814	0.000802
03201	11571511	-0.036826	0.061245	-9.815161	-0.007357	-0.000328	-0.001119
03202	11571536	-0.030079	0.034064	-9.770613	-0.008050	-0.001058	-0.005870
03203	11571561	-0.026568	0.034160	-9.803228	-0.009008	-0.002745	-0.000618
03204	11571586	-0.042182	0.054951	-9.783988	-0.004493	-0.002156	-0.006588
03205	11571611	-0.017819	0.025370	-9.814781	-0.008105	-0.003050	-0.002098
03206	11571636	-0.015203	0.051227	-9.826772	-0.006169	-0.003541	-0.002234
03207	11571661	-0.036197	0.013783	-9.818989	-0.005443	-0.000429	-0.004844
03208	11571686	-0.016417	0.001000	-9.835852	-0.001642	-0.001065	-0.002234
03209	11571711	-0.005050	0.026333	-9.802378	-0.009480	-0.002238	-0.002538
03210	11571736	-0.019115	0.055236	-9.818130	-0.001957	-0.001204	-0.002488
03211	11571761	-0.007827	0.034157	-9.820580	-0.008662	0.004360	-0.004494
03212	11571786	-0.026052	0.046205	-9.824312	-0.001201	0.001730	0.001243
03213	11571811	-0.018113	0.045719	-9.813344	-0.004949	-0.005318	0.002180
03214	11571836	-0.017065	0.052609	-9.823416	-0.010753	0.003874	-0.002502
03215	11571861	-0.016228	0.049094	-9.814308	-0.006957	-0.002572	0.002520
03216	11571886	-0.034459	0.045693	-9.791689	-0.004365	-0.007883	0.001587
03217	11571911	-0.029349	0.025818	-9.796494	-0.002581	-0.003611	-0.003141
03218	11571936	0.004832	0.018930	-9.841728	-0.003375	0.000902	-0.005230
03219	11571961	-0.004958	0.025535	-9.818679	-0.002684	-0.004575	-0.003017
03220	11571986	0.000703	0.032701	-9.814864	-0.005424	-0.000741	-0.001325
03221	11572011	-0.000792	0.035989	-9.814376	-0.006065	-0.004828	-0.001667
03222	11572036	-0.018944	0.043533	-9.826750	-0.003782	-0.002004	-0.001010
03223	11572061	-0.027675	0.060085	-9.830069	-0.004755	-0.001702	-0.002229
03224	11572086	-0.010957	0.029662	-9.846437	-0.001082	0.001860	0.000602
03225	11572111	-0.020103	0.030004	-9.839206	-0.009680	-0.002117	-0.004140
03226	11572136	-0.004876	0.030098	-9.835452	-0.005014	-0.001705	-0.002548
03227	11572161	-0.000905	0.024284	-9.856087	-0.004163	-0.004333	0.000191
03228	11572186	-0.040876	0.046674	-9.828566	-0.008892	-0.004096	0.001428
03229	11572211	-0.013924	0.021305	-9.824377	-0.006871	-0.005604	0.001670
03230	11572236	0.006924	0.029128	-9.822559	-0.006752	-0.005426	-0.002183
03231	11572261	-0.020295	0.028532	-9.806615	-0.005823	-0.004366	-0.001790
03232	11572286	-0.011011	0.022733	-9.825349	-0.003159	0.002129	-0.005545
03233	11572311	-0.029575	0.042914	-9.794587	-0.004581	-0.001381	-0.005816
03234	11572336	-0.041011	0.057953	-9.826636	-0.002651	-0.001539	-0.003959
03235	11572361	-0.052898	0.056369	-9.828019	-0.000021	-0.003360	-0.000003
03236	11572386	-0.050361	0.043772	-9.830909	-0.009432	-0.005858	-0.004157
03237	11572411	-0.027736	0.059438	-9.817611	-0.005127	-0.000292	-0.004265
03238	11572436	-0.028694	0.056361	-9.807056	-0.000943	-0.000735	-0.004156
03239	11572461	-0.015719	0.039833	-9.798497	-0.005569	-0.004433	-0.003843
03240	11572486	-0.029709	0.066526	-9.820478	-0.003706	-0.002261	-0.001079
03241	11572511	-0.042068	0.063105	-9.822338	-0.003476	-0.003360	-0.000121
03242	11572536	-0.022091	0.056718	-9.793663	-0.002380	0.000416	0.000405
03243	11572561	-0.013662	0.028882	-9.796101	-0.003542	0.000450	-0.001961
03244	11572586	-0.000724	0.033192	-9.815341	-0.004801	0.001590	-0.004901
03245	11572611	-0.001733	0.046261	-9.834027	-0.005148	0.000551	-0.001703
03246	11572636	-0.015596	0.035311	-9.812397	-0.004433	-0.003764	-0.002368
03247	11572661	-0.029557	0.057487	-9.819984	-0.000663	0.002500	-0.003947
03248	11572686	-0.013274	0.043843	-9.810007	-0.005981	-0.001207	-0.001776
03249	11572711	-0.015298	0.056239	-9.818631	-0.002263	0.000142	-0.005493
03250	11572736	-0.015545	0.004771	-9.833479	-0.003508	-0.002909	-0.004290
03251	11572761	-0.016081	0.018533	-9.837299	0.000162	0.000979	0.001369
03252	11572786	0.005568	0.024260	-9.820164	-0.003661	-0.002143	-0.004093
03253	11572811	-0.006536	0.046440	-9.822977	-0.001305	0.000814	0.000399
03254	11572836	-0.014961	0.031619	-9.819579	-0.005521	0.002418	-0.002973
03255	11572861	-0.008828	0.025713	-9.800446	-0.003129	-0.000253	0.000536
03256	11572886	-0.007532	0.039689	-9.815794	-0.004566	-0.003572	-0.001596
03257	11572911	-0.015105	0.014885	-9.843540	-0.001273	-0.002214	0.001284
03258	11572936	-0.019327	0.031932	-9.809970	-0.009070	-0.002806	-0.000623
03259	11572961	-0.018501	0.040866	-9.807116	-0.004444	-0.001435	-0.002420
03260	11572986	-0.024523	0.041239	-9.835827	-0.006488	0.000197	-0.004070
03261	11573011	-0.035741	0.044428	-9.805101	-0.001930	-0.002237	-0.004995
03262	11573036	-0.017791	0.034615	-9.833461	-0.004710	-0.000921	0.000022
03263	11573061	-0.042729	0.039850	-9.817050	-0.010148	0.000787	-0.002709
03264	11573086	-0.011715	0.039295	-9.824395	-0.005716	-0.001785	-0.003251
03265	11573111	-0.005521	0.040818	-9.827298	-0.001468	-0.000288	-0.001334
03266	11573136	-0.016026	0.049506	-9.844512	-0.002819	-0.001857	0.001357
03267	11573161	-0.037453	0.042939	-9.832418	-0.003879	-0.003044	-0.001596
03268	11573186	-0.041976	0.072620	-9.850614	-0.008616	-0.000803	-0.000863
03269	11573211	-0.029594	0.057160	-9.823839	-0.007249	-0.003880	-0.003512
03270	11573236	-0.044146	0.050882	-9.834290	0.000091	0.001100	-0.001128
03271	11573261	-0.034796	0.058479	-9.825235	-0.002937	-0.000443	-0.002162
03272	11573286	-0.047980	0.050881	-9.832358	-0.004935	0.002497	0.001837
03273	11573311	-0.028324	0.069944	-9.821926	-0.007200	-0.003162	-0.000687
03274	11573336	-0.011898	0.060414	-9.835426	-0.007726	-0.000529	-0.000741
03275	11573361	-0.027690	0.048474	-9.811376	-0.007671	-0.006463	0.001028
03276	11573386	-0.007319	0.020995	-9.799486	-0.006683	-0.001416	-0.003251
03277	11573411	-0.023793	0.054298	-9.819544	-0.005281	0.003205	0.000302
03278	11573436	-0.034046	0.038693	-9.830516	-0.006685	-0.001208	0.002396
03279	11573461	-0.020677	0.025337	-9.816199	-0.004829	-0.003384	-0.001405
03280	11573486	-0.014143	0.039254	-9.823423	-0.003828	-0.002392	0.000332
03281	11573511	-0.036998	0.036054	-9.817557	-0.004345	-0.004408	-0.000508
03282	11573536	-0.031579	0.030164	-9.831005	-0.003803	-0.001226	0.001492
03283	11573561	-0.021298	0.048964	-9.839206	-0.008695	-0.002681	-0.003250
03284	11573586	-0.014397	0.023547	-9.823418	-0.001110	-0.001569	-0.000502
03285	11573611	-0.031565	0.062363	-9.822862	-0.006267	-0.002569	-0.003064
03286	11573636	-0.034670	0.032602	-9.802711	-0.008681	-0.005263	-0.004157
03287	11573661	-0.046013	0.044213	-9.830940	-0.006022	0.000085	-0.003564
03288	11573686	-0.039357	0.045686	-9.830486	-0.001901	0.001453	-0.000486
03289	11573711	-0.037577	0.048364	-9.814191	-0.006084	0.002548	0.004023
03290	11573736	-0.010739	0.024321	-9.803783	-0.004727	-0.003067	-0.006212
03291	11573761	-0.019173	0.020609	-9.814763	-0.006469	0.000080	-0.001183
03292	11573786	0.012002	0.041831	-9.811096	-0.009510	-0.000814	0.000735
03293	11573811	-0.011149	0.045797	-9.845013	-0.002760	0.000140	-0.002868
03294	11573836	-0.005622	0.034735	-9.799504	-0.004034	-0.000535	-0.005619
03295	11573861	-0.016262	0.018894	-9.821004	-0.010909	-0.001296	-0.001308
03296	11573886	-0.016473	0.037363	-9.821014	-0.008848	0.000095	-0.003871
03297	11573911	-0.008312	0.015575	-9.785586	-0.008793	0.000355	-0.003743
03298	11573936	-0.006489	0.018322	-9.785116	-0.000702	-0.004080	0.000957
03299	11573961	-0.024597	0.026092	-9.807068	-0.004469	-0.006269	0.004548
03300	11573986	-0.026784	0.030234	-9.830057	-0.005186	0.000110	0.001112
03301	11574011	-0.033754	0.048447	-9.822369	0.000472	-0.000700	-0.001913
03302	11574036	-0.025009	0.042786	-9.839188	-0.009529	0.000036	0.002417
03303	11574061	-0.026081	0.043794	-9.820968	-0.001076	-0.000410	-0.001843
03304	11574086	-0.036155	0.039540	-9.796942	-0.002854	0.001045	-0.003500
03305	11574111	-0.010909	0.041477	-9.807146	-0.006014	-0.002246	-0.002098
03306	11574136	-0.042487	0.055989	-9.822331	-0.006409	-0.004125	-0.003518
03307	11574161	-0.045882	0.064407	-9.819435	-0.004098	-0.002342	-0.005244
03308	11574186	-0.031175	0.043591	-9.840113	-0.004186	0.000894	0.000413
03309	11574211	-0.030954	0.056242	-9.831005	-0.002156	-0.000289	0.002395
03310	11574236	-0.016015	0.035758	-9.811908	-0.003211	0.000268	0.000402
03311	11574261	-0.044691	0.084804	-9.818959	-0.001612	0.000754	0.001627
03312	11574286	-0.050050	0.055852	-9.818930	-0.004461	-0.000724	-0.002031
03313	11574311	-0.028034	0.044556	-9.807056	-0.002971	0.000916	-0.001067
03314	11574336	-0.028707	0.059291	-9.810901	-0.003022	0.002600	-0.000086
03315	11574361	-0.048919	0.043981	-9.819901	-0.001396	-0.000285	-0.000496
03316	11574386	-0.026175	0.026117	-9.843498	-0.002849	0.000653	-0.004658
03317	11574411	-0.045630	0.051451	-9.836207	-0.006296	-0.000873	0.004973
03318	11574436	-0.030400	0.033510	-9.800333	-0.005597	-0.003003	0.002003
03319	11574461	-0.012922	0.052335	-9.803300	-0.008853	0.002687	0.000884
03320	11574486	-0.033467	0.064662	-9.823811	-0.004250	0.000764	-0.000031
03321	11574511	-0.028145	0.016625	-9.811842	-0.005171	0.001456	-0.001699
03322	11574536	-0.030553	0.044379	-9.796506	-0.005473	-0.000738	0.002402
03323	11574561	-0.037022	0.049184	-9.838169	-0.004295	-0.003691	0.001673
03324	11574586	-0.010915	0.048836	-9.825838	-0.004922	-0.004417	-0.000060
03325	11574611	-0.019305	0.036960	-9.827707	-0.008467	-0.001639	-0.000939
03326	11574636	-0.004157	0.045155	-9.824441	-0.009906	-0.000829	-0.004329
03327	11574661	-0.025169	0.046217	-9.813778	-0.009246	0.000603	-0.005476
03328	11574686	-0.011084	0.060134	-9.818177	-0.007468	-0.003043	-0.002676
03329	11574711	-0.005011	0.033236	-9.820109	-0.008284	-0.001636	-0.003053
03330	11574736	-0.005458	0.041091	-9.838812	-0.008465	-0.001836	-0.004272
03331	11574761	-0.030183	0.030053	-9.819508	-0.008050	-0.000928	-0.006127
03332	11574786	-0.024198	0.047666	-9.824812	-0.001456	-0.000672	-0.001267
03333	11574811	-0.000262	0.048326	-9.841238	-0.008440	-0.000475	-0.002792
03334	11574836	-0.023931	0.029284	-9.830564	-0.004150	-0.000463	-0.002162
03335	11574861	-0.004903	0.057137	-9.802864	-0.005609	0.000860	-0.005871
03336	11574886	-0.024436	0.038176	-9.853095	-0.004081	-0.004983	-0.002116
03337	11574911	0.010298	0.032177	-9.833134	-0.008112	-0.004923	-0.000763
03338	11574936	-0.027964	0.070688	-9.805153	-0.010332	-0.003290	-0.001962
03339	11574961	-0.030508	0.053336	-9.821431	-0.009803	-0.001784	-0.000481
03340	11574986	-0.011611	0.030821	-9.828222	-0.004107	-0.002150	-0.005633
03341	11575011	-0.012059	0.032279	-9.828711	-0.006436	0.000919	-0.002787
03342	11575036	-0.016140	0.044902	-9.818147	-0.007616	-0.002599	-0.005624
03343	11575061	-0.016022	0.044607	-9.832043	-0.004075	-0.000718	-0.000623
03344	11575086	-0.012805	0.054214	-9.831105	-0.011803	0.000432	-0.002134
03345	11575111	-0.023415	0.058108	-9.822421	-0.006060	-0.000820	-0.002086
03346	11575136	-0.030291	0.063929	-9.803216	-0.005238	-0.004819	-0.004423
03347	11575161	-0.039355	0.069456	-9.803170	-0.002347	0.001779	0.003174
03348	11575186	-0.035694	0.046859	-9.809417	-0.004062	0.000633	-0.002022
03349	11575211	-0.039770	0.034466	-9.809393	-0.003751	0.003093	-0.003617
03350	11575236	-0.040257	0.034700	-9.819931	-0.007460	-0.000961	0.002082
03351	11575261	-0.028240	0.038975	-9.843002	-0.007962	-0.001429	-0.001065
03352	11575286	-0.021418	0.039725	-9.800858	0.000305	-0.003746	-0.001417
03353	11575311	-0.023411	0.050825	-9.809476	-0.003406	-0.001867	-0.001268
03354	11575336	-0.044777	0.026207	-9.832853	-0.003341	0.002591	0.001255
03355	11575361	-0.015839	0.021618	-9.813345	-0.008009	0.002117	-0.002451
03356	11575386	-0.031020	0.053730	-9.815680	-0.010052	-0.003724	0.003099
03357	11575411	-0.030854	0.043753	-9.818553	-0.006679	-0.001338	0.001113
03358	11575436	-0.017543	0.053343	-9.818136	-0.002062	0.006749	0.000630
03359	11575461	-0.022784	0.053468	-9.829134	-0.003269	0.000137	-0.001195
03360	11575486	-0.002999	0.022660	-9.815323	-0.001855	-0.000034	0.000465
03361	11575511	0.001774	0.025094	-9.817749	-0.000523	0.000176	-0.003321
03362	11575536	-0.018870	0.043451	-9.821486	-0.003126	0.001757	-0.000931
03363	11575561	0.012319	0.060278	-9.811586	-0.002411	0.005312	-0.004314
03364	11575586	-0.017388	0.043482	-9.823876	-0.000256	0.006263	-0.001489
03365	11575611	-0.016553	0.047792	-9.828197	-0.001997	0.000682	0.001369
03366	11575636	-0.013919	0.060924	-9.815275	0.000639	0.001682	-0.006071
03367	11575661	-0.005011	0.032881	-9.806686	0.001819	0.003456	0.000091
03368	11575686	-0.012598	0.034989	-9.828692	0.004800	0.000083	-0.000514
03369	11575711	-0.029806	0.055976	-9.846348	0.001138	0.004478	-0.001569
03370	11575736	-0.023284	0.055884	-9.833443	0.000288	-0.001290	-0.004612
03371	11575761	-0.022248	0.047679	-9.819555	-0.005886	0.003770	-0.003091
03372	11575786	-0.024964	0.053737	-9.784544	-0.004287	0.002126	0.000554
03373	11575811	-0.013323	0.051067	-9.821033	-0.001597	-0.000289	-0.001524
03374	11575836	-0.034332	0.051817	-9.796476	0.002544	0.004631	-0.002724
03375	11575861	-0.026568	0.036303	-9.790289	-0.007236	0.004068	-0.002830
03376	11575886	-0.025898	0.055915	-9.802280	-0.005598	-0.003394	-0.001526
03377	11575911	-0.000870	0.036313	-9.804326	-0.003496	-0.002904	0.000645
03378	11575936	0.004965	0.036545	-9.816331	-0.003478	0.000720	0.001433
03379	11575961	-0.016024	0.036246	-9.812385	-0.003184	0.000903	-0.006704
03380	11575986	-0.033385	0.049823	-9.814232	-0.005546	-0.004877	0.000837
03381	11576011	-0.032469	0.028282	-9.830046	-0.008990	0.000411	-0.005925
03382	11576036	-0.037226	0.058676	-9.804134	-0.009042	0.006951	0.000077
03383	11576061	-0.028033	0.034779	-9.792191	0.000262	0.001679	-0.002611
03384	11576086	0.001052	0.025412	-9.860409	-0.010487	-0.002775	-0.003436
03385	11576111	0.000671	0.037618	-9.826368	-0.004445	-0.003244	0.000072
03386	11576136	-0.015367	0.029123	-9.842115	-0.007020	-0.005364	-0.003652
03387	11576161	-0.039476	0.053247	-9.827614	-0.002557	-0.002638	-0.006220
03388	11576186	-0.017895	0.039792	-9.825319	-0.007288	-0.000325	-0.000674
03389	11576211	-0.025070	0.035708	-9.814256	-0.007494	-0.002199	-0.002225
03390	11576236	-0.010225	0.032651	-9.820086	-0.005579	-0.001580	0.001685
03391	11576261	-0.013727	0.004124	-9.816700	-0.008236	-0.000989	-0.001702
03392	11576286	-0.050089	0.030121	-9.836178	-0.012490	-0.000100	-0.005020
03393	11576311	-0.049368	0.039735	-9.817017	-0.007191	0.002319	-0.005658
03394	11576336	-0.055787	0.058137	-9.820813	-0.002886	0.000140	-0.002605
03395	11576361	-0.058578	0.055954	-9.832309	-0.005454	-0.003582	0.001553
03396	11576386	-0.029749	0.035774	-9.823340	-0.005789	0.000735	-0.002791
03397	11576411	-0.045497	0.044279	-9.836679	-0.001884	0.000940	-0.000870
03398	11576436	-0.023578	0.035878	-9.825778	-0.005169	-0.002350	0.001873
03399	11576461	-0.053707	0.052738	-9.836167	-0.003861	0.000842	0.001252
03400	11576486	-0.017787	0.040588	-9.850722	-0.005233	-0.002940	-0.003389
03401	11576511	-0.007450	0.042547	-9.817707	-0.002486	0.003904	0.001384
03402	11576536	-0.015509	0.041205	-9.828692	-0.001486	-0.001904	-0.003462
03403	11576561	-0.010141	0.064318	-9.819126	0.003223	-0.000788	-0.002690
03404	11576586	-0.024706	0.055289	-9.826726	-0.002883	0.004148	-0.000152
03405	11576611	-0.018707	0.062869	-9.819090	-0.002597	-0.001083	-0.002746
03406	11576636	-0.010157	0.060445	-9.804277	-0.008273	0.002435	-0.003159
03407	11576661	0.000093	0.044973	-9.814387	-0.000538	0.002830	-0.001833
03408	11576686	-0.004671	0.076673	-9.812462	-0.002834	-0.002877	0.007251
03409	11576711	-0.026124	0.074398	-9.801321	-0.004137	-0.001177	-0.003377
03410	11576736	-0.001060	0.063788	-9.826379	-0.013779	-0.001864	-0.004129
03411	11576761	-0.019947	0.048767	-9.829151	-0.004545	-0.002083	0.000723
03412	11576786	-0.004659	0.033058	-9.806692	-0.009035	-0.004032	-0.000434
03413	11576811	0.003849	0.016394	-9.829259	-0.007863	-0.000528	-0.000679
03414	11576836	-0.024065	0.044127	-9.841585	-0.001766	-0.001071	-0.001848
03415	11576861	-0.021971	0.059109	-9.822434	-0.004326	-0.000982	-0.000817
03416	11576886	-0.017063	0.040793	-9.803271	-0.000720	0.000568	-0.000750
03417	11576911	-0.041376	0.043554	-9.812748	-0.006841	-0.000642	-0.002083
03418	11576936	-0.036091	0.011372	-9.816111	-0.004375	0.006567	-0.005265
03419	11576961	-0.050059	0.014269	-9.804058	0.000985	0.001113	-0.003311
03420	11576986	-0.021498	0.013371	-9.812355	-0.002509	-0.001656	0.000463
03421	11577011	-0.045488	0.030045	-9.806002	-0.002852	0.001313	0.000669
03422	11577036	-0.033346	0.020025	-9.821880	-0.002092	0.001584	0.001951
03423	11577061	-0.036454	0.037984	-9.820914	-0.003345	0.000255	-0.004657
03424	11577086	-0.021471	0.025562	-9.832973	-0.004260	0.000693	-0.004010
03425	11577111	-0.034030	0.026461	-9.808456	-0.003748	0.001162	0.000419
03426	11577136	-0.046881	0.032774	-9.825171	-0.006975	-0.000782	-0.006892
03427	11577161	-0.064835	0.055607	-9.814543	-0.003991	0.000376	-0.004523
03428	11577186	-0.022746	0.036515	-9.804201	-0.006390	0.001435	-0.002593
03429	11577211	-0.046365	0.060460	-9.812242	0.000598	-0.002837	-0.000766
03430	11577236	0.024892	0.002526	-9.809237	-0.001422	0.000302	-0.002359
03431	11577261	-0.022274	0.047393	-9.831063	-0.008529	-0.001901	-0.002730
03432	11577286	-0.020436	0.068715	-9.860783	-0.005929	-0.003019	-0.002168
03433	11577311	-0.030952	0.080419	-9.797459	-0.004415	-0.002150	-0.002743
03434	11577336	-0.013934	0.051982	-9.818153	-0.004409	-0.008672	-0.001366
03435	11577361	-0.010359	0.046944	-9.823446	-0.007489	-0.000001	0.000605
03436	11577386	-0.001650	0.062575	-9.815352	-0.004713	-0.005257	-0.003850
03437	11577411	0.008207	0.047621	-9.825927	-0.000849	0.000697	0.001173
03438	11577436	-0.025213	0.079616	-9.801804	-0.007619	-0.001948	-0.000301
03439	11577461	-0.009939	0.051157	-9.820575	-0.003804	0.000636	-0.004213
03440	11577486	0.008187	0.047144	-9.821624	-0.003026	-0.001341	0.003220
03441	11577511	-0.011523	0.070963	-9.841655	-0.008883	-0.000750	-0.004716
03442	11577536	0.017050	0.033277	-9.839403	-0.005312	-0.000361	-0.004919
03443	11577561	-0.001571	0.036824	-9.843135	-0.002672	0.001302	-0.001320
03444	11577586	0.007011	0.028565	-9.823048	0.000158	0.001495	0.002584
03445	11577611	-0.009388	0.037199	-9.810984	0.000745	-0.001012	0.004238
03446	11577636	-0.013155	0.032281	-9.801853	-0.001669	0.002167	-0.000297
03447	11577661	-0.020235	0.040359	-9.813315	0.004557	0.007567	-0.005406
03448	11577686	-0.000150	0.037703	-9.836430	-0.000119	0.003615	-0.001508
03449	11577711	-0.034674	0.051852	-9.822840	-0.005153	0.005473	0.002047
03450	11577736	-0.035982	0.039903	-9.823304	-0.000407	0.002505	-0.003503
03451	11577761	-0.017870	0.029400	-9.808064	0.001572	-0.001256	0.000969
03452	11577786	-0.021114	0.007852	-9.788865	-0.004226	-0.004470	-0.003660
03453	11577811	-0.049503	0.040482	-9.805994	-0.006273	-0.002241	-0.001325
03454	11577836	-0.022703	-0.003266	-9.808981	-0.005834	0.000021	-0.002150
03455	11577861	-0.028306	0.035948	-9.830539	-0.009222	-0.000231	-0.002973
03456	11577886	-0.058131	0.048693	-9.820810	-0.007641	-0.005761	-0.004032
03457	11577911	-0.041114	0.025135	-9.822803	-0.001685	-0.003581	-0.000447
03458	11577936	-0.055683	0.040779	-9.803075	-0.000165	-0.000972	-0.002237
03459	11577961	-0.021591	0.030239	-9.826261	-0.005656	-0.001788	-0.005047
03460	11577986	-0.029634	0.019432	-9.807998	-0.005132	0.000298	0.000605
03461	11578011	-0.007840	0.023305	-9.795654	-0.007050	0.001867	-0.006564
03462	11578036	-0.020404	0.041813	-9.812838	0.000004	-0.000066	-0.000115
03463	11578061	-0.015021	0.033436	-9.817659	-0.002338	-0.001015	-0.000179
03464	11578086	0.006586	0.018528	-9.814411	-0.004500	-0.001705	-0.003837
03465	11578111	0.018258	0.041819	-9.832690	-0.010912	-0.002086	-0.009075
03466	11578136	0.004415	0.032649	-9.803872	-0.011799	-0.001766	-0.002918
03467	11578161	0.007819	0.035079	-9.835033	-0.012921	-0.009017	-0.002122
03468	11578186	0.011541	0.023575	-9.794312	-0.010496	-0.008918	-0.006036
03469	11578211	0.009720	0.030193	-9.824495	-0.012988	-0.008568	-0.000383
03470	11578236	0.011140	0.024108	-9.794305	-0.015494	-0.002414	-0.004902
03471	11578261	-0.006026	0.039982	-9.826337	-0.010882	-0.002398	-0.004657
03472	11578286	-0.006995	0.038644	-9.831612	-0.010531	-0.009818	-0.004116
03473	11578311	0.008498	0.018687	-9.816342	-0.012189	-0.001512	-0.002851
03474	11578336	-0.037520	0.033729	-9.814201	-0.013058	-0.006494	-0.000818
03475	11578361	-0.013883	0.013542	-9.810484	-0.012173	-0.004424	-0.006005
03476	11578386	-0.026402	0.044306	-9.848766	-0.007588	-0.001305	-0.002925
03477	11578411	-0.043834	0.044049	-9.815131	-0.009030	-0.006358	-0.001149
03478	11578436	-0.033449	0.024037	-9.829073	-0.011598	-0.004086	-0.003247
03479	11578461	-0.049280	0.025965	-9.816539	-0.008804	-0.005525	-0.004862
03480	11578486	-0.070703	0.055015	-9.805891	-0.011925	-0.007774	-0.001788
03481	11578511	-0.080364	0.033720	-9.819248	-0.011005	-0.008462	0.000130
03482	11578536	-0.058089	0.022007	-9.842848	-0.009015	-0.004297	0.000723
03483	11578561	-0.084690	0.043646	-9.824025	-0.006689	-0.003284	-0.000684
03484	11578586	-0.074290	0.026627	-9.854267	0.000405	-0.005031	-0.002322
03485	11578611	-0.061290	0.009460	-9.831799	-0.007311	0.000322	-0.002018
03486	11578636	-0.055487	0.044210	-9.837591	-0.005609	-0.000541	0.003618
03487	11578661	-0.041193	0.036469	-9.820885	0.000373	0.002404	0.000472
03488	11578686	-0.052239	0.029619	-9.806936	-0.009316	-0.005402	-0.003515
03489	11578711	-0.022133	0.029577	-9.811395	-0.010273	0.000653	-0.003354
03490	11578736	-0.012179	0.042818	-9.835416	-0.003546	-0.001751	-0.005694
03491	11578761	-0.015025	0.032074	-9.816712	-0.006595	-0.002120	-0.000753
03492	11578786	-0.005765	0.055059	-9.822510	-0.007366	-0.004402	-0.004800
03493	11578811	0.012963	0.044400	-9.821640	-0.009732	-0.002234	-0.000298
03494	11578836	-0.020044	0.063066	-9.830586	-0.007455	0.000766	-0.002271
03495	11578861	-0.007610	0.086289	-9.816276	-0.008224	-0.000919	0.000097
03496	11578886	-0.012146	0.059299	-9.798992	-0.003359	-0.003353	-0.001214
03497	11578911	0.019247	0.070397	-9.817839	-0.000674	-0.004849	0.004095
03498	11578936	0.021704	0.043322	-9.842783	-0.005607	-0.000878	-0.000624
03499	11578961	-0.006196	0.062260	-9.835445	0.002289	0.002299	-0.001650
03500	11578986	0.010658	0.040162	-9.826904	-0.006308	-0.002885	0.001612
03501	11579011	0.004216	0.059429	-9.820644	-0.007643	-0.001363	-0.001772
03502	11579036	-0.003292	0.056210	-9.836430	-0.004242	-0.001305	0.001492
03503	11579061	-0.020120	0.060571	-9.820514	-0.009239	-0.001130	0.002344
03504	11579086	0.011714	0.060178	-9.803904	-0.004655	-0.000864	-0.003639
03505	11579111	-0.001735	0.042384	-9.827320	-0.008209	-0.001700	-0.002222
03506	11579136	-0.009511	0.055647	-9.830640	-0.009477	-0.000368	-0.003745
03507	11579161	-0.032293	0.049001	-9.826690	-0.000018	0.000049	-0.005825
03508	11579186	-0.030638	0.059690	-9.806567	-0.002272	0.000927	-0.002791
03509	11579211	-0.055672	0.065842	-9.852939	-0.008824	-0.000288	-0.001055
03510	11579236	-0.046113	0.047925	-9.828054	-0.002764	-0.001596	0.000976
03511	11579261	-0.046123	0.050879	-9.829490	-0.006576	-0.000767	-0.002860
03512	11579286	-0.043782	0.037073	-9.799308	-0.000940	-0.002997	-0.003842
03513	11579311	-0.064312	0.094072	-9.816943	-0.005783	0.002736	-0.002643
03514	11579336	-0.038668	0.065559	-9.825218	-0.003661	0.002320	-0.002143
03515	11579361	-0.039677	0.058170	-9.807009	-0.004457	0.000817	-0.005223
03516	11579386	-0.039894	0.039739	-9.813231	-0.003922	-0.001484	0.001749
03517	11579411	-0.028615	0.028954	-9.841561	-0.006224	-0.001664	-0.000429
03518	11579436	-0.059831	0.053677	-9.841883	-0.002551	0.003898	-0.001301
03519	11579461	-0.017240	0.057317	-9.826284	-0.003214	-0.005674	0.002491
03520	11579486	-0.006622	0.048349	-9.823936	-0.001618	-0.003383	0.001539
03521	11579511	0.001361	0.017490	-9.811515	-0.004700	0.000557	-0.001583
03522	11579536	-0.002909	0.021032	-9.827786	-0.010817	-0.000718	-0.005925
03523	11579561	0.008265	-0.005159	-9.813457	-0.008126	-0.002998	-0.006716
03524	11579586	-0.028535	0.008567	-9.814233	-0.003964	-0.000337	-0.002798
03525	11579611	-0.005452	-0.006203	-9.816254	-0.009045	-0.001647	-0.002348
03526	11579636	-0.008329	-0.001039	-9.824872	0.002016	0.001131	-0.000116
03527	11579661	0.004045	0.000301	-9.832615	-0.004964	-0.003250	-0.000635
03528	11579686	-0.014832	-0.020576	-9.821010	-0.003123	-0.004444	0.001985
03529	11579711	-0.028810	0.002685	-9.827173	-0.008367	0.003272	-0.003088
03530	11579736	0.003638	0.019863	-9.811049	-0.004224	-0.004272	-0.000319
03531	11579761	0.006645	0.044432	-9.804827	-0.000839	-0.003687	0.003652
03532	11579786	0.009341	0.021862	-9.812498	-0.002873	-0.004113	0.003970
03533	11579811	-0.029619	0.048908	-9.811370	-0.006665	-0.006130	-0.002564
03534	11579836	-0.015376	0.031400	-9.837800	-0.004138	-0.003049	-0.001852
03535	11579861	-0.020544	0.038817	-9.847903	-0.004929	-0.002095	-0.000685
03536	11579886	-0.009183	0.027975	-9.801501	-0.004710	-0.001116	-0.000875
03537	11579911	-0.034147	0.047201	-9.807134	-0.005609	-0.000942	-0.002214
03538	11579936	-0.025052	0.046052	-9.819651	-0.002261	-0.003859	-0.002623
03539	11579961	-0.038043	0.052451	-9.812390	-0.004569	-0.003767	-0.003959
03540	11579986	-0.046579	0.061147	-9.831993	-0.005524	-0.001389	0.001119
03541	11580011	-0.039448	0.074867	-9.856474	-0.000164	-0.001243	-0.003894
03542	11580036	-0.045161	0.061169	-9.828644	-0.004968	-0.000925	-0.000031
03543	11580061	-0.020744	0.047151	-9.822051	-0.007941	-0.000536	-0.004384
03544	11580086	-0.026257	0.064346	-9.809566	-0.001572	-0.000800	0.001755
03545	11580111	-0.038494	0.068070	-9.839223	-0.007312	0.000650	0.001585
03546	11580136	-0.051190	0.079051	-9.825752	-0.004053	-0.008026	-0.005008
03547	11580161	-0.023422	0.065269	-9.802387	-0.006174	0.000857	-0.001563
03548	11580186	-0.016090	0.059396	-9.819203	0.000742	0.002587	-0.004460
03549	11580211	-0.012787	0.050240	-9.803396	-0.005320	-0.000295	-0.004390
03550	11580236	-0.037161	0.039084	-9.772605	-0.005198	-0.002304	-0.006965
03551	11580261	-0.018017	0.049191	-9.799062	-0.007768	0.002506	-0.003597
03552	11580286	-0.016072	0.019780	-9.828305	-0.006934	-0.001809	-0.003819
03553	11580311	0.014722	0.024042	-9.809285	-0.002342	-0.002949	-0.000568
03554	11580336	-0.005423	0.034394	-9.816861	-0.003730	-0.006014	-0.001991
03555	11580361	0.002639	0.012050	-9.834152	-0.006236	-0.003469	0.000721
03556	11580386	-0.002187	0.016656	-9.834599	-0.001308	-0.001447	-0.001076
03557	11580411	-0.049100	0.032103	-9.823823	-0.007272	-0.000635	0.004141
03558	11580436	-0.018505	0.043478	-9.800982	-0.004005	-0.006983	0.001469
03559	11580461	-0.023692	0.021163	-9.834022	-0.005941	-0.002629	-0.001197
03560	11580486	-0.019775	0.006287	-9.823966	-0.004578	-0.003310	0.000402
03561	11580511	-0.008929	0.010560	-9.810602	-0.002846	-0.001474	-0.002484
03562	11580536	-0.017522	0.048361	-9.806256	-0.007708	-0.003567	-0.003698
03563	11580561	-0.009059	0.034042	-9.825462	-0.006132	0.001505	-0.002138
03564	11580586	-0.023307	0.026355	-9.830194	-0.007203	-0.003231	-0.001903
03565	11580611	-0.018988	0.027550	-9.843152	-0.006796	-0.006191	-0.001661
03566	11580636	-0.027041	0.050620	-9.809089	-0.004540	-0.002347	-0.002418
03567	11580661	-0.006655	0.033146	-9.830273	-0.005101	0.001332	-0.000601
03568	11580686	0.024066	0.037980	-9.807420	-0.003900	-0.000332	0.000210
03569	11580711	-0.034163	0.076769	-9.792280	0.000092	-0.000638	0.001495
03570	11580736	0.000564	0.049942	-9.802521	-0.005074	0.000624	0.001192
03571	11580761	-0.014638	0.051865	-9.814410	-0.010075	0.000988	0.001018
03572	11580786	-0.032302	0.060265	-9.824401	-0.002888	-0.000055	-0.002921
03573	11580811	-0.004944	0.040548	-9.816379	-0.005311	0.001843	-0.000726
03574	11580836	-0.004859	0.047251	-9.849452	-0.006133	-0.002491	0.002909
03575	11580861	-0.001372	0.048905	-9.797703	-0.006539	0.000209	0.000615
03576	11580886	-0.020964	0.032470	-9.826845	-0.003518	0.001679	-0.001308
03577	11580911	-0.028395	0.054138	-9.822500	-0.005306	0.001514	-0.004514
03578	11580936	-0.037667	0.025694	-9.801828	-0.002363	0.004029	-0.001173
03579	11580961	-0.026359	0.027495	-9.814351	-0.007282	-0.005177	-0.002743
03580	11580986	-0.010658	0.012215	-9.828329	-0.004217	0.003605	-0.003161
03581	11581011	-0.041439	0.021947	-9.809011	-0.002705	-0.001997	-0.005881
03582	11581036	-0.017352	0.041841	-9.817755	-0.003821	-0.000773	0.001691
03583	11581061	-0.069932	0.043287	-9.792564	-0.009625	-0.001597	-0.003359
03584	11581086	-0.064090	0.043643	-9.812735	-0.008559	-0.001064	-0.004834
03585	11581111	-0.012060	0.022732	-9.798127	-0.009669	-0.004438	-0.003248
03586	11581136	-0.031330	0.012205	-9.816241	-0.001131	-0.002991	-0.001085
03587	11581161	-0.036986	0.018526	-9.828186	-0.005114	0.002116	0.002742
03588	11581186	-0.033552	0.051433	-9.836857	-0.006805	-0.001474	0.000606
03589	11581211	-0.015472	0.014025	-9.824949	-0.009209	0.003715	-0.001477
03590	11581236	-0.024292	0.023703	-9.813881	-0.006261	-0.000624	-0.001058
03591	11581261	-0.015939	0.037802	-9.800511	-0.003673	0.003107	0.002226
03592	11581286	0.008096	0.010019	-9.791988	-0.007054	-0.001873	-0.001577
03593	11581311	-0.039929	0.048879	-9.797997	-0.005504	-0.000232	-0.003751
03594	11581336	-0.003955	0.033838	-9.807277	-0.007072	0.000845	0.000617
03595	11581361	-0.020763	0.057784	-9.837882	-0.005957	-0.000104	-0.000475
03596	11581386	-0.029944	0.027217	-9.832067	-0.003475	0.000057	-0.003815
03597	11581411	-0.006023	0.042878	-9.813982	-0.003335	-0.004460	-0.004487
03598	11581436	-0.007601	0.035187	-9.845119	0.002833	-0.002266	0.004427
03599	11581461	0.008153	0.060756	-9.822691	-0.003920	-0.001952	-0.004598
03600	11581486	-0.004660	0.057833	-9.823100	-0.009656	-0.002629	-0.002277
03601	11581511	-0.002769	0.057852	-9.822146	-0.010173	-0.000374	-0.000083
03602	11581536	-0.002329	0.036912	-9.852820	-0.007698	-0.004020	-0.004728
03603	11581561	-0.037213	0.076105	-9.838758	-0.005654	-0.001064	0.002857
03604	11581586	-0.024226	0.058857	-9.821558	0.000106	-0.001553	-0.000371
03605	11581611	-0.008438	0.058720	-9.827399	-0.003770	-0.000857	-0.008187
03606	11581636	-0.025559	0.052636	-9.815805	-0.006557	0.002457	-0.006680
03607	11581661	-0.038384	0.040960	-9.805673	-0.005373	-0.002821	-0.007480
03608	11581686	-0.048826	0.051724	-9.835331	-0.007221	-0.002578	-0.000679
03609	11581711	-0.045451	0.037165	-9.810905	-0.007348	-0.000586	-0.001307
03610	11581736	-0.012716	0.010922	-9.807223	-0.005223	0.002807	-0.004825
03611	11581761	-0.023927	0.031240	-9.812456	-0.002475	-0.001018	-0.004213
03612	11581786	-0.026317	0.027340	-9.806686	-0.003867	-0.001034	0.002079
03613	11581811	-0.037744	0.029993	-9.807104	-0.001210	-0.000347	-0.001964
03614	11581836	-0.035682	0.020608	-9.808552	-0.004244	0.000380	-0.001957
03615	11581861	-0.037084	0.014379	-9.803748	-0.006653	0.001559	-0.001940
03616	11581886	-0.040287	0.019633	-9.844959	-0.000951	-0.002670	-0.002360
03617	11581911	-0.022573	0.011732	-9.838331	-0.004458	-0.000985	-0.001769
03618	11581936	-0.031499	0.004659	-9.845471	-0.009611	0.000548	0.002939
03619	11581961	-0.031688	0.015800	-9.833490	-0.001632	0.000875	-0.000292
03620	11581986	-0.056551	0.041560	-9.798383	-0.006476	-0.004059	-0.002994
03621	11582011	-0.027239	0.025538	-9.815794	-0.003047	-0.005090	0.000645
03622	11582036	-0.020964	0.016098	-9.806222	-0.009188	-0.001724	-0.005414
03623	11582061	-0.014997	0.046921	-9.839827	-0.002176	-0.006568	-0.002187
03624	11582086	-0.020631	0.071106	-9.810077	-0.004524	-0.000791	-0.001445
03625	11582111	0.010274	0.012150	-9.838986	-0.001560	-0.001515	-0.001653
03626	11582136	-0.002252	0.030509	-9.837002	-0.007176	0.004400	0.000766
03627	11582161	-0.006950	0.052638	-9.831230	-0.006109	-0.001667	-0.004333
03628	11582186	-0.004276	0.055553	-9.804887	-0.001778	0.001848	0.002281
03629	11582211	0.011726	0.044199	-9.822220	-0.004235	0.002255	0.000423
03630	11582236	-0.008631	0.063607	-9.807269	-0.005215	0.001207	0.001259
03631	11582261	-0.031151	0.077176	-9.814823	-0.000747	0.001141	-0.000995
03632	11582286	0.018045	0.059632	-9.804517	-0.002326	-0.001591	0.000401
03633	11582311	-0.009004	0.053669	-9.802948	-0.009775	-0.000423	0.003183
03634	11582336	0.005421	0.059229	-9.845678	-0.007489	-0.002073	0.000350
03635	11582361	-0.036710	0.068193	-9.817664	-0.007752	0.000054	-0.002334
03636	11582386	-0.019583	0.060677	-9.810561	-0.003126	-0.004710	-0.002046
03637	11582411	-0.012555	0.067251	-9.801978	-0.001688	-0.001520	-0.002548
03638	11582436	-0.017381	0.050615	-9.827826	-0.009160	0.002167	-0.000905
03639	11582461	-0.036924	0.042462	-9.809023	-0.006577	0.001039	-0.004829
03640	11582486	-0.046370	0.035125	-9.802747	-0.006570	0.003508	0.001405
03641	11582511	-0.052307	0.022442	-9.819489	-0.002749	0.001557	-0.004454
03642	11582536	-0.026239	-0.008564	-9.814346	-0.006597	0.001886	-0.001490
03643	11582561	-0.059646	0.030786	-9.808910	-0.005825	-0.000226	-0.000091
03644	11582586	-0.038811	0.029903	-9.796560	-0.006801	-0.001796	0.000548
03645	11582611	-0.047328	0.008055	-9.831011	-0.006434	-0.001277	-0.002219
03646	11582636	-0.057528	0.025502	-9.833849	-0.007398	-0.001106	-0.002401
03647	11582661	-0.060764	0.049468	-9.822815	-0.005452	-0.002035	-0.003564
03648	11582686	-0.029348	0.016792	-9.830636	-0.005615	-0.000684	-0.000226
03649	11582711	-0.034645	0.026243	-9.836364	-0.002648	0.002798	-0.000210
03650	11582736	-0.037565	0.048151	-9.811436	-0.003016	-0.008325	-0.002579
03651	11582761	-0.014408	0.032856	-9.815860	-0.002012	-0.001270	-0.000694
03652	11582786	-0.046525	0.049151	-9.821450	-0.004150	-0.002335	0.000280
03653	11582811	-0.024024	0.052474	-9.828745	-0.010853	0.002573	-0.007699
03654	11582836	0.002629	0.045026	-9.818821	-0.009747	0.000277	-0.001749
03655	11582861	0.000999	0.053816	-9.808747	-0.006294	-0.003268	0.003864
03656	11582886	-0.002098	0.042522	-9.815441	-0.007521	0.000958	-0.000086
03657	11582911	0.011988	0.044666	-9.789151	-0.005764	0.002030	-0.001237
03658	11582936	0.004592	0.029115	-9.804928	-0.004531	-0.001323	-0.007798
03659	11582961	-0.021150	0.079250	-9.815834	-0.003883	-0.000784	-0.002542
03660	11582986	-0.027467	0.074356	-9.867571	-0.010373	-0.002445	-0.002404
03661	11583011	0.019960	0.029018	-9.818429	-0.003749	0.000696	-0.005490
03662	11583036	-0.004746	0.058396	-9.804887	-0.003456	-0.000061	0.000855
03663	11583061	0.005539	0.049537	-9.835619	-0.004587	0.001274	0.000359
03664	11583086	0.015583	0.039156	-9.826069	-0.011238	-0.003299	-0.001638
03665	11583111	-0.024652	0.046790	-9.800945	-0.009242	-0.001191	0.002536
03666	11583136	-0.023519	0.041825	-9.817724	-0.009249	-0.000936	0.001512
03667	11583161	-0.022815	0.016045	-9.810048	-0.005069	0.000294	-0.001244
03668	11583186	-0.015232	0.032634	-9.831190	-0.005099	0.000872	-0.004131
03669	11583211	-0.050494	0.018373	-9.795541	-0.005732	0.003062	-0.002380
03670	11583236	-0.033233	0.025241	-9.831095	-0.003316	0.001559	-0.001182
03671	11583261	-0.030514	0.033302	-9.829193	-0.001490	0.002557	-0.001243
03672	11583286	-0.044651	0.019679	-9.820003	-0.001138	0.001197	-0.006448
03673	11583311	-0.033117	0.013948	-9.830618	-0.009978	-0.000505	-0.002201
03674	11583336	-0.044500	0.027876	-9.791732	-0.007533	-0.001168	-0.002721
03675	11583361	-0.053782	0.022094	-9.822845	-0.008902	0.000431	0.002874
03676	11583386	-0.063995	0.044387	-9.837179	-0.002857	-0.004759	0.001612
03677	11583411	-0.004175	0.015511	-9.822130	-0.002488	-0.002764	-0.004803
03678	11583436	-0.031251	0.042397	-9.803319	-0.003639	-0.000510	0.000668
03679	11583461	-0.031674	0.055245	-9.834455	-0.006929	0.002196	-0.004373
03680	11583486	-0.020134	0.042071	-9.835487	-0.000560	-0.000921	-0.002551
03681	11583511	-0.041239	0.035600	-9.802293	-0.003584	-0.004530	-0.003646
03682	11583536	-0.005981	0.036357	-9.792889	-0.003333	0.000127	-0.002599
03683	11583561	-0.027819	0.056814	-9.839754	-0.006980	0.004075	0.000061
03684	11583586	-0.002552	0.030076	-9.809196	-0.005573	-0.002237	-0.001194
03685	11583611	0.040809	0.021683	-9.784019	-0.007759	0.000384	-0.000158
03686	11583636	0.004924	0.047306	-9.810684	-0.006729	-0.000191	-0.003940
03687	11583661	0.007518	0.031564	-9.805900	-0.006439	0.003244	-0.001359
03688	11583686	-0.010211	0.054336	-9.852314	-0.004597	-0.002928	-0.002480
03689	11583711	-0.018104	0.070976	-9.830708	-0.002120	0.000153	0.001116
03690	11583736	-0.034854	0.062874	-9.808562	-0.006917	-0.002064	-0.000681
03691	11583761	-0.003161	0.049996	-9.808247	-0.006799	0.002599	0.000626
03692	11583786	-0.010740	0.042932	-9.824019	0.000775	-0.006050	0.004601
03693	11583811	-0.014990	0.041341	-9.811049	-0.004104	-0.000209	-0.005873
03694	11583836	-0.013087	0.036922	-9.801472	-0.003053	0.001559	0.000036
03695	11583861	-0.033629	0.042942	-9.809530	-0.004032	-0.002666	-0.006714
03696	11583886	-0.013488	0.022201	-9.861385	-0.004517	0.000760	-0.002143
03697	11583911	-0.008048	0.035195	-9.838414	-0.006956	0.003104	-0.000781
03698	11583936	-0.017603	0.030537	-9.819180	-0.005873	0.005977	0.003529
03699	11583961	-0.021517	0.033292	-9.815335	-0.008632	0.003657	-0.001922
03700	11583986	-0.063569	0.047133	-9.825192	-0.007676	-0.000267	-0.001113
03701	11584011	-0.041753	0.043376	-9.809486	-0.010525	-0.003155	0.000995
03702	11584036	-0.017602	0.031987	-9.824461	-0.002548	0.001438	-0.002533
03703	11584061	-0.036784	0.036534	-9.825325	-0.006424	-0.000061	-0.007012
03704	11584086	-0.039210	0.042736	-9.831542	-0.001214	-0.002481	-0.003196
03705	11584111	-0.048348	0.053679	-9.839652	-0.006253	-0.000820	0.000039
03706	11584136	-0.021084	0.020175	-9.795207	-0.007032	-0.004710	-0.000821
03707	11584161	-0.016673	0.023713	-9.808647	-0.006647	0.003365	-0.003411
03708	11584186	-0.034523	0.041640	-9.816241	-0.005119	-0.002420	-0.002927
03709	11584211	-0.028352	0.033238	-9.789907	-0.003769	-0.000395	-0.003760
03710	11584236	-0.026380	0.031592	-9.804291	-0.005423	-0.002414	0.002974
03711	11584261	-0.021624	0.044261	-9.823489	-0.005993	0.001253	-0.001240
03712	11584286	-0.002856	0.032746	-9.831249	-0.003360	-0.001027	0.001685
03713	11584311	0.002626	-0.002205	-9.807306	-0.002675	-0.003028	-0.005060
03714	11584336	-0.018363	0.039668	-9.797621	-0.006627	0.002983	-0.000013
03715	11584361	-0.022454	0.025074	-9.806228	-0.009148	-0.000028	0.001970
03716	11584386	-0.042771	0.054372	-9.817635	-0.006580	-0.002633	-0.000744
03717	11584411	-0.015963	0.008732	-9.819198	-0.007547	0.001408	-0.002901
03718	11584436	-0.006397	0.033804	-9.805350	-0.010066	0.000209	-0.001487
03719	11584461	-0.010536	0.034623	-9.834576	-0.006473	-0.004052	0.000080
03720	11584486	0.003944	0.066287	-9.845190	-0.006339	-0.002249	-0.002606
03721	11584511	0.003235	0.028677	-9.803480	-0.010014	0.000459	-0.005920
03722	11584536	-0.012001	0.063604	-9.805332	-0.006811	-0.001547	-0.002149
03723	11584561	-0.021203	0.070575	-9.803848	-0.005965	-0.005658	0.001419
03724	11584586	0.000393	0.026748	-9.808737	-0.004496	-0.001958	-0.003125
03725	11584611	-0.015207	0.056858	-9.806746	-0.002733	0.001369	-0.000028
03726	11584636	-0.012070	0.036652	-9.814912	-0.003685	-0.000966	0.000663
03727	11584661	-0.036647	0.058267	-9.817670	-0.008158	-0.003707	-0.005682
03728	11584686	-0.042294	0.054905	-9.818117	-0.009377	-0.001396	-0.002399
03729	11584711	-0.025741	0.031430	-9.822983	-0.008748	0.001794	0.004159
03730	11584736	-0.022687	0.045661	-9.817741	-0.009614	-0.003922	-0.001705
03731	11584761	-0.034161	0.051401	-9.805691	-0.002614	0.001633	-0.002272
03732	11584786	-0.022124	0.040723	-9.810549	-0.002956	0.002468	0.000812
03733	11584811	-0.041318	0.053554	-9.824836	-0.005539	-0.005333	-0.001721
03734	11584836	-0.035416	0.034802	-9.805202	-0.005807	0.001250	-0.002523
03735	11584861	-0.043594	0.053060	-9.825772	-0.004645	0.002751	-0.005597
03736	11584886	-0.024250	0.035472	-9.840727	-0.003685	0.003035	-0.002003
03737	11584911	-0.006733	0.031665	-9.823561	-0.006424	-0.003536	-0.001009
03738	11584936	-0.037476	0.014707	-9.822923	-0.009570	0.000860	-0.000010
03739	11584961	-0.028151	0.039252	-9.838788	-0.009067	-0.000939	-0.001247
03740	11584986	-0.023975	0.041953	-9.826832	-0.006686	-0.003219	0.000210
03741	11585011	-0.013371	0.026330	-9.823048	-0.003025	-0.001998	-0.003251
03742	11585036	-0.043131	0.046708	-9.817153	-0.001062	0.000942	-0.003691
03743	11585061	-0.023022	0.034644	-9.806697	-0.015162	-0.000598	-0.003476
03744	11585086	0.006437	0.006161	-9.822666	-0.004275	-0.002921	-0.001848
03745	11585111	-0.009495	0.016271	-9.810609	-0.007255	-0.001222	0.001317
03746	11585136	-0.018541	0.020489	-9.817266	-0.003496	-0.000641	0.002274
03747	11585161	-0.007726	0.030583	-9.816843	-0.004371	-0.001761	-0.002353
03748	11585186	-0.023948	0.035622	-9.816294	-0.007619	-0.002138	-0.001766
03749	11585211	-0.028790	0.035180	-9.790373	-0.007878	0.006057	-0.004156
03750	11585236	-0.008480	0.058182	-9.826910	-0.002037	-0.002818	-0.002359
03751	11585261	-0.029092	0.062473	-9.807639	-0.007328	0.001234	0.002038
03752	11585286	0.002714	0.041258	-9.826958	-0.002164	-0.000627	-0.001840
03753	11585311	-0.015434	0.036585	-9.812003	-0.003381	-0.001037	-0.005551
03754	11585336	0.016442	0.043046	-9.806913	-0.004813	0.004037	-0.006486
03755	11585361	-0.040785	0.050575	-9.819084	-0.002199	0.000606	-0.000989
03756	11585386	-0.005451	0.044232	-9.808707	-0.001927	0.002290	0.000353
03757	11585411	-0.006281	0.030584	-9.814459	-0.008312	0.001271	-0.002769
03758	11585436	0.001938	0.030954	-9.834152	-0.002234	-0.000431	-0.002351
03759	11585461	-0.009443	0.026587	-9.836489	-0.004749	-0.001767	-0.000685
03760	11585486	-0.035807	0.039064	-9.833961	-0.004084	-0.000586	-0.000481
03761	11585511	-0.029768	0.042147	-9.818655	-0.001013	-0.001001	-0.006136
03762	11585536	-0.023305	0.043713	-9.791845	-0.000209	-0.003880	-0.001475
03763	11585561	-0.027211	0.059186	-9.809088	-0.003619	-0.005828	-0.008020
03764	11585586	-0.028494	0.045149	-9.793740	-0.005059	-0.002293	-0.004531
03765	11585611	-0.036625	0.067562	-9.837811	-0.004874	-0.002086	-0.001065
03766	11585636	-0.027431	0.039340	-9.787994	-0.001511	0.003131	-0.003554
03767	11585661	-0.007366	0.053677	-9.836984	-0.004734	0.001524	-0.003932
03768	11585686	-0.032714	0.051687	-9.821993	-0.003061	0.001563	0.000618
03769	11585711	-0.036823	0.072848	-9.813351	-0.003631	-0.000910	-0.002991
03770	11585736	-0.038099	0.025484	-9.816212	-0.007662	-0.001177	-0.006376
03771	11585761	-0.039730	0.021212	-9.850227	-0.005996	0.003251	0.000310
03772	11585786	-0.009307	0.013735	-9.836483	-0.000581	-0.001818	0.001611
03773	11585811	-0.035041	0.045084	-9.821515	-0.008458	-0.004095	-0.002542
03774	11585836	0.008488	0.034646	-9.818362	-0.008398	0.001977	-0.002131
03775	11585861	-0.031717	0.062483	-9.843575	-0.004852	0.001200	-0.004449
03776	11585886	-0.002687	0.012764	-9.828842	-0.002058	-0.004305	-0.003652
03777	11585911	-0.018140	0.025540	-9.807676	-0.001441	0.000878	-0.001574
03778	11585936	-0.013128	0.048570	-9.816824	-0.007218	0.001357	-0.001878
03779	11585961	0.019953	0.028099	-9.816992	-0.006108	-0.001338	-0.000872
03780	11585986	-0.017723	0.032305	-9.812010	-0.005308	0.001383	-0.003870
03781	11586011	-0.006276	0.034512	-9.824043	-0.003175	-0.001423	-0.004663
03782	11586036	-0.002658	0.054128	-9.834128	-0.002208	-0.001201	-0.001137
03783	11586061	-0.021058	0.067925	-9.812472	-0.010429	-0.002845	-0.006701
03784	11586086	0.008919	0.032119	-9.805899	-0.009650	0.001311	-0.003283
03785	11586111	-0.026498	0.057530	-9.828258	-0.003143	0.001806	-0.005543
03786	11586136	-0.018327	0.042748	-9.812002	-0.008976	0.000294	-0.000918
03787	11586161	-0.037011	0.055493	-9.822456	-0.007308	-0.001802	0.000094
03788	11586186	-0.012046	0.043645	-9.836960	-0.004239	-0.002150	-0.003505
03789	11586211	-0.038416	0.052489	-9.816212	-0.003438	0.003627	0.000051
03790	11586236	-0.018698	0.038329	-9.833090	-0.008135	-0.003889	0.000729
03791	11586261	-0.019554	0.022690	-9.808630	-0.003099	-0.001347	-0.001198
03792	11586286	-0.013703	0.050336	-9.807227	-0.009708	0.001445	0.001146
03793	11586311	-0.013526	0.041639	-9.828805	-0.005548	-0.005139	-0.002109
03794	11586336	-0.035105	0.050322	-9.822474	-0.011057	-0.004521	0.002080
03795	11586361	-0.040955	0.052108	-9.792715	-0.004722	-0.000736	-0.004716
03796	11586386	-0.045071	0.044670	-9.806108	-0.006175	0.000596	-0.003485
03797	11586411	-0.037024	0.042759	-9.796093	-0.008485	0.000618	-0.004695
03798	11586436	-0.036142	0.058139	-9.807126	-0.008552	0.001073	-0.003222
03799	11586461	-0.041412	0.062539	-9.819560	-0.011733	0.000307	-0.001548
03800	11586486	-0.021019	0.030463	-9.817738	-0.005545	-0.002801	0.003926
03801	11586511	-0.035898	0.038641	-9.809041	-0.003859	0.000578	-0.000803
03802	11586536	-0.030790	0.038678	-9.807145	-0.005361	-0.004549	0.001553
03803	11586561	-0.015926	0.046198	-9.821594	-0.003584	0.001940	0.001258
03804	11586586	-0.000989	0.026399	-9.814483	-0.007762	-0.000212	-0.005473
03805	11586611	-0.022567	0.046065	-9.821087	-0.002527	0.005321	0.001016
03806	11586636	-0.036090	0.054433	-9.817666	-0.003730	-0.001878	-0.004275
03807	11586661	-0.010134	0.031998	-9.821147	-0.000323	-0.004403	-0.001539
03808	11586686	-0.014832	0.037757	-9.828794	-0.001614	0.000159	-0.004211
03809	11586711	-0.006286	0.020295	-9.796238	-0.005075	-0.001836	-0.000550
03810	11586736	-0.018533	0.019940	-9.812474	-0.003727	0.000387	0.002021
03811	11586761	-0.033428	0.034603	-9.822464	-0.002256	0.000873	0.003436
03812	11586786	-0.031426	0.066929	-9.828245	-0.001672	-0.001781	-0.001073
03813	11586811	-0.008764	0.015797	-9.843195	-0.005388	0.000159	-0.003049
03814	11586836	-0.036090	0.040942	-9.802812	-0.005108	-0.004812	-0.002812
03815	11586861	-0.008417	0.051001	-9.818763	-0.005251	-0.001965	0.001624
03816	11586886	-0.023656	0.051952	-9.826843	-0.008771	-0.001894	0.001897
03817	11586911	-0.016649	0.030599	-9.828782	-0.003816	0.001158	-0.001889
03818	11586936	-0.013235	0.045907	-9.798603	-0.006811	0.000846	0.000429
03819	11586961	0.018604	0.021913	-9.816021	-0.004940	0.000297	-0.000475
03820	11586986	-0.018269	0.049656	-9.835011	-0.002870	0.001688	-0.002979
03821	11587011	-0.020593	0.036204	-9.820604	-0.006099	0.000013	-0.004321
03822	11587036	-0.042661	0.047749	-9.821463	-0.001188	-0.001052	-0.000171
03823	11587061	-0.015579	0.015882	-9.823036	-0.005214	-0.001128	0.000475
03824	11587086	-0.022195	0.025865	-9.830666	-0.005460	0.008553	-0.003253
03825	11587111	-0.033339	0.029052	-9.825343	-0.010224	0.001372	-0.000709
03826	11587136	-0.024855	0.035661	-9.818679	-0.008252	0.001262	-0.007777
03827	11587161	-0.040944	0.062138	-9.823875	-0.009717	-0.002955	-0.002918
03828	11587186	-0.030691	0.047576	-9.828715	-0.007524	-0.003166	-0.000298
03829	11587211	-0.025935	0.027615	-9.789902	-0.005136	0.000691	0.001648
03830	11587236	-0.037395	0.041928	-9.808069	-0.003514	-0.000449	-0.002411
03831	11587261	-0.015817	0.024072	-9.803372	0.000352	-0.001353	-0.001529
03832	11587286	-0.029426	0.053053	-9.813869	-0.004314	-0.001174	0.000858
03833	11587311	-0.003943	0.002370	-9.831232	-0.004518	-0.001575	-0.005044
03834	11587336	-0.035793	0.031291	-9.821980	-0.006248	-0.003150	-0.002609
03835	11587361	-0.041854	0.021132	-9.815711	-0.005668	0.000998	-0.000021
03836	11587386	-0.033776	0.055314	-9.812403	-0.004387	0.001281	0.001520
03837	11587411	-0.015407	0.064289	-9.793806	-0.003643	-0.000656	-0.004718
03838	11587436	-0.026885	0.079799	-9.822033	-0.008985	-0.003321	0.001504
03839	11587461	-0.024236	0.057570	-9.821563	-0.008678	-0.003389	-0.003885
03840	11587486	-0.002291	0.023281	-9.829813	-0.005803	-0.000817	-0.000422
03841	11587511	-0.029424	0.060954	-9.831594	-0.010301	-0.000578	-0.003994
03842	11587536	-0.024554	0.037113	-9.789443	-0.006720	0.002083	-0.000016
03843	11587561	-0.027048	0.049334	-9.812920	-0.009939	-0.002125	-0.004452
03844	11587586	0.009484	0.032898	-9.831309	-0.005423	-0.002877	-0.001521
03845	11587611	-0.016262	0.071904	-9.825442	-0.005947	-0.002497	-0.002347
03846	11587636	0.001257	0.048062	-9.834145	-0.008115	0.001670	0.000305
03847	11587661	-0.007498	0.071031	-9.855199	-0.003634	-0.002642	0.001296
03848	11587686	-0.012458	0.034900	-9.821129	-0.006370	0.000720	-0.003746
03849	11587711	-0.008407	0.058028	-9.840820	-0.010061	-0.003530	0.003041
03850	11587736	-0.009457	0.053199	-9.811097	-0.002241	-0.001845	0.001812
03851	11587761	-0.026259	0.064032	-9.812925	-0.006281	-0.002053	-0.001767
03852	11587786	-0.011091	0.041555	-9.823060	-0.005753	0.001509	-0.003359
03853	11587811	0.014175	0.030801	-9.815520	-0.002782	-0.003609	-0.004098
03854	11587836	-0.011258	0.056737	-9.824014	-0.002885	0.002016	-0.002271
03855	11587861	-0.019753	0.045650	-9.819651	-0.000432	0.001478	-0.000992
03856	11587886	-0.002846	0.034792	-9.840357	-0.003901	-0.002530	-0.002617
03857	11587911	-0.018342	0.062270	-9.850836	-0.003675	0.000450	-0.002722
03858	11587936	-0.014842	0.031132	-9.828311	-0.003658	-0.003882	-0.000502
03859	11587961	-0.039403	0.047963	-9.802312	-0.001182	0.000817	-0.001383
03860	11587986	-0.034774	0.049893	-9.798502	-0.002848	-0.005607	-0.002630
03861	11588011	-0.026655	0.018331	-9.806681	-0.004965	-0.001188	-0.002603
03862	11588036	-0.018622	0.024261	-9.817272	-0.002743	-0.004447	-0.000383
03863	11588061	-0.025564	0.046339	-9.808135	-0.003959	-0.000256	0.002976
03864	11588086	-0.024600	0.010479	-9.815794	-0.005624	-0.000298	-0.000286
03865	11588111	-0.033527	0.046575	-9.828222	-0.005560	-0.000480	0.000289
03866	11588136	-0.057914	0.043140	-9.808928	-0.006010	-0.000560	-0.001630
03867	11588161	-0.032416	0.031817	-9.824872	-0.006536	0.000344	0.001837
03868	11588186	-0.036828	0.027651	-9.805191	-0.001486	-0.001378	0.002517
03869	11588211	-0.048163	0.038871	-9.835333	-0.005206	0.000618	0.000808
03870	11588236	-0.070339	0.051284	-9.820859	-0.008753	-0.002672	0.000353
03871	11588261	-0.045421	0.039191	-9.820968	-0.005592	-0.001059	0.002407
03872	11588286	-0.035412	0.070980	-9.812401	-0.004995	-0.004165	-0.001590
03873	11588311	-0.027024	0.054134	-9.820585	-0.008050	-0.002398	0.002468
03874	11588336	-0.012154	0.047216	-9.821153	-0.005221	-0.001201	-0.004593
03875	11588361	-0.039314	0.052845	-9.837775	-0.007278	-0.003107	-0.002602
03876	11588386	-0.033767	0.033444	-9.836364	-0.007506	0.002386	-0.001803
03877	11588411	-0.024261	0.053946	-9.804307	-0.007208	-0.001030	-0.000861
03878	11588436	-0.016379	0.041038	-9.823996	-0.004639	-0.003375	-0.000690
03879	11588461	-0.015427	0.040016	-9.817289	-0.006931	-0.001742	-0.003116
03880	11588486	-0.014107	0.042769	-9.810585	-0.004742	-0.002350	-0.004151
03881	11588511	-0.016397	0.038946	-9.812487	-0.004402	-0.000927	-0.005621
03882	11588536	-0.017799	0.056610	-9.857064	0.000840	-0.002444	0.000073
03883	11588561	-0.026492	0.057349	-9.843604	-0.006703	-0.004971	-0.002232
03884	11588586	-0.028827	0.040825	-9.816747	-0.008827	-0.004481	0.000535
03885	11588611	-0.007506	0.050925	-9.813499	-0.004064	-0.002773	0.004826
03886	11588636	-0.030951	0.047014	-9.792768	-0.005297	-0.003076	-0.006263
03887	11588661	-0.010208	0.039119	-9.818279	-0.005110	-0.004749	-0.001340
03888	11588686	-0.011341	0.048919	-9.806768	-0.007343	-0.000185	0.003119
03889	11588711	-0.028347	0.041170	-9.810036	-0.007074	-0.000697	0.003627
03890	11588736	-0.007595	0.018136	-9.815878	0.002263	-0.005133	-0.002000
03891	11588761	-0.020542	0.034863	-9.825409	-0.007281	0.001618	0.002681
03892	11588786	-0.011101	0.030003	-9.813481	-0.006962	-0.004970	-0.001270
03893	11588811	-0.012572	0.029759	-9.802443	0.001267	-0.004184	-0.005332
03894	11588836	-0.010146	0.026118	-9.808212	-0.001916	-0.006619	-0.000201
03895	11588861	-0.013338	0.034497	-9.830242	-0.004017	0.001286	-0.001565
03896	11588886	-0.004626	0.054426	-9.823590	-0.002934	-0.000046	0.002147
03897	11588911	-0.020117	0.031841	-9.815341	-0.006793	-0.001733	0.000796
03898	11588936	-0.042349	0.037389	-9.855497	-0.003590	-0.002395	-0.003506
03899	11588961	-0.011550	0.045645	-9.841750	-0.007750	-0.000404	-0.004959
03900	11588986	-0.004037	0.038657	-9.812551	-0.005972	-0.003468	0.000973
03901	11589011	-0.043579	0.051235	-9.832012	-0.003606	0.000644	0.000103
03902	11589036	-0.025021	0.049592	-9.831624	-0.005850	-0.001399	-0.000994
03903	11589061	-0.006042	0.046201	-9.812069	-0.004202	-0.001113	-0.002283
03904	11589086	-0.014161	0.054264	-9.815858	-0.008233	0.001477	0.001845
03905	11589111	-0.034141	0.042984	-9.808569	-0.007649	-0.005108	0.001685
03906	11589136	-0.018903	0.042518	-9.795700	-0.008357	0.001138	-0.000721
03907	11589161	-0.032258	0.043766	-9.801865	-0.000428	-0.000262	0.003034
03908	11589186	-0.054181	0.059578	-9.831476	-0.001359	-0.001702	-0.000426
03909	11589211	-0.021529	0.030680	-9.804785	-0.001782	0.003192	-0.006367
03910	11589236	-0.054749	0.054123	-9.813743	-0.003016	-0.006397	-0.004430
03911	11589261	-0.039682	0.066506	-9.800397	-0.007498	0.000583	0.001973
03912	11589286	-0.025211	0.059722	-9.813409	-0.007193	0.000778	0.001068
03913	11589311	-0.031353	0.058447	-9.823923	-0.007500	-0.002208	-0.003494
03914	11589336	-0.047371	0.086367	-9.832476	-0.007507	0.000580	-0.000076
03915	11589361	-0.037089	0.060646	-9.820538	-0.005013	0.000365	-0.001310
03916	11589386	0.018846	0.045781	-9.826565	-0.005507	-0.000028	0.000358
03917	11589411	0.008674	0.022950	-9.832734	-0.002024	-0.001137	-0.002225
03918	11589436	-0.020874	0.053696	-9.811513	-0.012800	-0.000492	-0.004759
03919	11589461	-0.018484	0.011810	-9.806723	-0.007148	-0.000770	0.000674
03920	11589486	-0.037316	0.040626	-9.817171	-0.002380	0.002745	0.003123
03921	11589511	-0.015508	0.048680	-9.828311	-0.004163	-0.000402	-0.003943
03922	11589536	-0.019134	0.027974	-9.809595	-0.006405	-0.000049	-0.001691
03923	11589561	-0.012859	0.024377	-9.817303	-0.006279	-0.001790	0.001372
03924	11589586	0.010497	0.014336	-9.797281	-0.002721	0.001252	0.002468
03925	11589611	-0.016719	0.036939	-9.838856	-0.002503	-0.001457	0.005470
03926	11589636	-0.022168	0.046280	-9.831636	-0.004494	-0.006086	-0.001217
03927	11589661	-0.015165	0.022556	-9.827352	-0.003935	-0.003436	-0.002876
03928	11589686	-0.027108	0.034654	-9.849828	-0.006038	-0.003394	0.003417
03929	11589711	-0.025746	0.026602	-9.818191	-0.005364	-0.003013	-0.005431
03930	11589736	0.001307	0.001329	-9.817356	-0.008735	0.002751	-0.001037
03931	11589761	-0.022460	0.034373	-9.827316	-0.005077	-0.001971	-0.003760
03932	11589786	-0.011323	0.022083	-9.823054	-0.005542	0.001265	0.002222
03933	11589811	-0.038704	0.044304	-9.832989	-0.011641	0.001143	-0.005195
03934	11589836	-0.019098	0.041313	-9.843151	-0.007555	-0.000265	-0.002909
03935	11589861	-0.027005	0.043372	-9.812379	-0.006483	0.002269	-0.003091
03936	11589886	-0.030714	0.063841	-9.794097	-0.010419	0.003637	0.000767
03937	11589911	-0.003434	0.051875	-9.800953	-0.005160	0.000748	-0.005671
03938	11589936	-0.024993	0.063081	-9.801809	-0.010043	-0.000040	0.001580
03939	11589961	-0.045001	0.036698	-9.832371	-0.006038	-0.001658	-0.002860
03940	11589986	-0.020750	0.040611	-9.825301	-0.002548	0.003114	-0.006756
03941	11590011	-0.057661	0.060303	-9.838545	-0.001271	-0.004798	-0.002831
03942	11590036	-0.039452	0.040207	-9.808916	-0.005266	-0.001700	-0.000684
03943	11590061	-0.033228	0.034441	-9.801758	-0.003473	0.000331	-0.001957
03944	11590086	-0.032199	0.045853	-9.834355	-0.005539	0.000943	0.000548
03945	11590111	-0.014334	0.063495	-9.826297	-0.003807	0.003174	-0.000405
03946	11590136	-0.005451	0.034601	-9.822506	-0.001243	0.002567	-0.003557
03947	11590161	-0.025913	0.033390	-9.822405	-0.003351	0.000861	0.003748
03948	11590186	-0.027651	0.055740	-9.821920	-0.008425	-0.000980	-0.001378
03949	11590211	0.000123	0.033358	-9.795213	-0.005983	0.000869	-0.000997
03950	11590236	-0.007552	0.047878	-9.818183	-0.007682	0.001936	-0.002068
03951	11590261	-0.017924	0.038656	-9.813808	-0.008141	0.002183	-0.003862
03952	11590286	0.004092	0.015368	-9.797621	-0.003000	-0.004508	-0.000261
03953	11590311	0.004988	0.033684	-9.815847	-0.004432	-0.001490	0.001620
03954	11590336	-0.013459	0.071812	-9.840691	-0.002439	-0.001715	0.002831
03955	11590361	-0.014034	0.043843	-9.842598	-0.004286	-0.000133	0.000089
03956	11590386	-0.028141	0.049965	-9.815691	-0.009665	-0.004427	-0.001648
03957	11590411	-0.051541	0.053847	-9.813176	-0.007811	-0.004403	-0.003511
03958	11590436	-0.020886	0.046102	-9.810442	-0.004539	0.003405	-0.006364
03959	11590461	-0.016663	0.048620	-9.816223	-0.003918	-0.002068	-0.004026
03960	11590486	-0.014330	0.026583	-9.828687	-0.005543	0.004809	-0.006354
03961	11590511	-0.027034	0.049301	-9.832947	-0.009073	-0.001065	-0.003941
03962	11590536	-0.022900	0.052772	-9.815240	-0.003347	-0.001675	-0.002354
03963	11590561	-0.032530	0.059765	-9.808956	-0.007735	-0.000381	0.000225
03964	11590586	-0.028942	0.044805	-9.821425	-0.008738	0.000814	-0.001493
03965	11590611	-0.020599	0.026858	-9.825301	-0.000268	0.000261	-0.000815
03966	11590636	-0.014674	0.054147	-9.833967	-0.005437	-0.000225	-0.001897
03967	11590661	-0.017982	0.046332	-9.821009	-0.006627	0.000988	-0.001374
03968	11590686	-0.032246	0.045834	-9.831476	-0.005762	-0.000687	-0.005420
03969	11590711	0.001435	0.016301	-9.828293	-0.006287	-0.002246	-0.005303
03970	11590736	-0.030823	0.034640	-9.813278	-0.004277	-0.004914	-0.002562
03971	11590761	-0.016888	0.035908	-9.828204	0.000414	-0.000814	0.002836
03972	11590786	-0.032481	0.056561	-9.825253	0.000370	-0.006138	-0.004312
03973	11590811	-0.029605	0.057366	-9.808493	-0.003034	0.002730	-0.003490
03974	11590836	0.004340	0.012491	-9.824467	-0.003782	-0.001928	0.002578
03975	11590861	-0.015921	0.033488	-9.820056	-0.003968	0.001675	-0.004518
03976	11590886	-0.018861	0.066579	-9.811907	-0.004186	-0.005890	-0.005454
03977	11590911	-0.004449	0.030081	-9.835935	-0.004295	-0.004672	-0.007498
03978	11590936	-0.028996	0.041137	-9.806079	0.001284	-0.000161	0.000589
03979	11590961	-0.033975	0.061270	-9.815179	-0.008114	-0.002918	-0.002670
03980	11590986	-0.007060	0.047489	-9.823463	-0.009079	-0.000344	-0.000346
03981	11591011	-0.018659	0.020675	-9.816683	-0.009885	-0.001329	0.000480
03982	11591036	-0.001713	0.031709	-9.812939	-0.006059	-0.001070	-0.002152
03983	11591061	-0.020035	0.019263	-9.823388	-0.004306	0.000183	-0.003244
03984	11591086	-0.009400	0.025412	-9.782707	-0.002038	0.001913	0.001955
03985	11591111	-0.014438	0.023555	-9.815269	-0.008741	-0.001511	-0.005227
03986	11591136	-0.021020	0.051290	-9.809006	-0.001690	-0.001119	0.001681
03987	11591161	-0.021295	0.038671	-9.813796	-0.010665	0.001045	-0.001679
03988	11591186	-0.016761	0.024595	-9.822445	-0.011492	-0.001228	-0.002016
03989	11591211	-0.001763	0.030623	-9.810061	-0.001869	-0.005777	-0.000072
03990	11591236	-0.007601	0.012722	-9.817701	-0.005698	-0.002228	-0.001845
03991	11591261	0.002581	0.027468	-9.813440	-0.005414	-0.005332	-0.002117
03992	11591286	-0.021407	0.044671	-9.811407	-0.004028	-0.002527	-0.002232
03993	11591311	-0.023174	0.047449	-9.839201	-0.002103	-0.004362	0.000189
03994	11591336	0.004015	0.031196	-9.807693	-0.002885	0.000149	-0.001006
03995	11591361	-0.006363	0.025942	-9.810519	-0.007857	0.001352	-0.002648
03996	11591386	-0.031687	0.035692	-9.819973	-0.006577	-0.000758	-0.002986
03997	11591411	-0.009070	0.055953	-9.824413	-0.002539	-0.001347	-0.006914
03998	11591436	-0.002008	0.029592	-9.831154	-0.005522	0.000028	-0.004077
03999	11591461	-0.027654	0.051868	-9.820962	-0.004131	-0.001103	-0.000295
04000	11591486	-0.050533	0.045877	-9.788722	-0.004600	0.003667	-0.002772
04001	11591511	-0.020978	0.054382	-9.821474	-0.005525	0.000359	-0.002527
04002	11591536	-0.042060	0.059627	-9.812748	-0.004306	-0.001818	-0.003120
04003	11591561	-0.017040	0.039037	-9.808552	-0.006138	-0.000423	-0.001448
04004	11591586	-0.044117	0.032527	-9.806490	-0.007805	-0.000389	-0.001054
04005	11591611	-0.046412	0.066613	-9.807455	-0.004573	0.000826	-0.002788
04006	11591636	-0.039637	0.056419	-9.818028	-0.004765	-0.003836	-0.005119
04007	11591661	-0.034267	0.045392	-9.803665	-0.003524	0.001946	-0.003166
04008	11591686	-0.016172	0.048071	-9.813351	-0.003399	0.000407	0.002079
04009	11591711	-0.024758	0.054404	-9.826724	-0.005680	-0.002606	0.000916
04010	11591736	-0.020375	0.018719	-9.846395	-0.008380	-0.002731	-0.003891
04011	11591761	-0.029192	0.043866	-9.790282	-0.010353	-0.004767	-0.000687
04012	11591786	-0.024001	0.056363	-9.798453	-0.006606	-0.001860	-0.001645
04013	11591811	-0.025532	0.045376	-9.827680	-0.003852	0.000127	-0.003953
04014	11591836	-0.018890	0.038584	-9.815729	0.000151	0.001173	-0.000618
04015	11591861	-0.009740	0.028000	-9.821045	-0.008880	-0.005125	-0.002040
04016	11591886	-0.009101	0.031208	-9.851724	-0.003099	-0.003347	-0.000636
04017	11591911	-0.015581	0.041025	-9.814787	-0.002898	0.000469	0.000083
04018	11591936	0.003056	0.038887	-9.816319	-0.003448	0.003822	-0.000724
04019	11591961	-0.010070	0.021166	-9.814805	-0.004618	0.004253	-0.000334
04020	11591986	-0.019446	0.038623	-9.808538	-0.010674	-0.003029	-0.003433
04021	11592011	-0.012873	0.056403	-9.828699	-0.002645	-0.001861	-0.004795
04022	11592036	0.021656	0.032430	-9.815926	-0.000921	-0.001375	-0.001469
04023	11592061	-0.018915	0.036741	-9.812849	-0.006831	-0.002766	-0.000496
04024	11592086	-0.016219	0.022791	-9.832514	-0.004761	0.000703	-0.000350
04025	11592111	-0.006561	0.028474	-9.793735	-0.003907	-0.001667	0.004122
04026	11592136	-0.003166	0.041263	-9.820122	-0.005049	0.001660	0.000674
04027	11592161	-0.015030	0.030626	-9.816229	-0.004907	-0.003055	-0.001332
04028	11592186	-0.017941	0.036859	-9.821009	-0.007275	-0.005098	-0.001021
04029	11592211	-0.011064	0.019326	-9.817207	-0.007391	-0.003228	-0.000174
04030	11592236	-0.032636	0.030333	-9.812778	-0.002672	-0.000814	-0.001518
04031	11592261	-0.041714	0.075496	-9.819935	-0.008288	0.001094	0.000112
04032	11592286	-0.015583	0.048426	-9.831564	-0.006434	-0.001279	-0.003055
04033	11592311	-0.054565	0.051752	-9.859179	-0.010766	-0.003996	-0.000615
04034	11592336	-0.015464	0.035015	-9.826774	-0.003538	-0.001335	0.003992
04035	11592361	-0.040671	0.068343	-9.819942	-0.005619	-0.002545	-0.000495
04036	11592386	-0.022683	0.028513	-9.806120	-0.006738	-0.003797	-0.000629
04037	11592411	-0.025408	0.034440	-9.823364	-0.008275	0.002509	-0.001492
04038	11592436	-0.018521	0.036638	-9.807110	-0.006770	-0.002503	0.000407
04039	11592461	-0.033619	0.053718	-9.786897	-0.008620	-0.005186	-0.001976
04040	11592486	-0.029848	0.040048	-9.820949	-0.008504	-0.002594	-0.000745
04041	11592511	-0.028531	0.041604	-9.804648	-0.001474	0.001782	-0.003496
04042	11592536	-0.017469	0.038346	-9.823887	-0.008087	-0.003363	0.003031
04043	11592561	-0.007654	0.056329	-9.818184	-0.003272	0.001943	-0.004774
04044	11592586	-0.017344	0.037875	-9.830112	-0.001068	0.001739	0.003299
04045	11592611	-0.011295	0.045997	-9.825349	-0.006060	0.001453	0.001897
04046	11592636	-0.022454	0.054807	-9.818588	-0.008038	-0.003175	-0.002350
04047	11592661	-0.012185	0.044893	-9.842615	-0.012055	-0.003698	-0.001638
04048	11592686	-0.014739	0.023694	-9.830606	-0.002724	0.002988	-0.003815
04049	11592711	-0.028785	0.028202	-9.821426	-0.006677	-0.003728	-0.000946
04050	11592736	-0.021943	0.042024	-9.793663	-0.003757	-0.004713	-0.000577
04051	11592761	-0.035918	0.025957	-9.805578	-0.007266	0.000711	-0.004131
04052	11592786	-0.035172	0.048469	-9.821880	-0.004052	0.000978	0.003371
04053	11592811	-0.029381	0.034997	-9.802252	-0.006443	0.003579	0.000696
04054	11592836	-0.031881	0.009929	-9.810382	-0.005794	0.001268	0.001450
04055	11592861	-0.040507	0.018368	-9.814178	-0.001363	0.002433	-0.002857
04056	11592886	-0.032070	0.029233	-9.830523	-0.006449	-0.003019	-0.002611
04057	11592911	-0.026750	0.049291	-9.804193	-0.007206	-0.002901	-0.000429
04058	11592936	-0.021758	0.042453	-9.820026	-0.002518	0.000411	-0.000937
04059	11592961	-0.041834	0.047819	-9.817058	-0.005014	0.000569	0.000289
04060	11592986	-0.026956	0.032911	-9.819049	-0.005728	-0.003515	-0.000113
04061	11593011	-0.020800	0.040591	-9.822911	-0.005364	-0.000414	-0.000226
04062	11593036	0.000102	-0.001483	-9.808147	-0.010966	-0.001936	-0.002339
04063	11593061	-0.009905	0.014439	-9.838295	-0.007634	-0.001876	-0.002603
04064	11593086	-0.017291	0.022044	-9.812856	-0.006144	0.000027	0.001383
04065	11593111	-0.030056	0.016652	-9.810877	-0.009441	0.000612	-0.003742
04066	11593136	-0.042441	0.055075	-9.822319	-0.007330	-0.003488	-0.003764
04067	11593161	-0.025661	0.050581	-9.825770	-0.007291	-0.002249	0.001754
04068	11593186	-0.021261	0.029843	-9.800375	-0.005786	0.000742	0.000229
04069	11593211	-0.035803	0.021529	-9.829545	-0.003630	-0.001161	-0.002092
04070	11593236	-0.018412	0.001717	-9.821474	-0.004613	-0.002210	-0.001654
04071	11593261	-0.048865	0.038434	-9.827084	-0.003186	-0.002699	-0.001207
04072	11593286	-0.016443	0.036348	-9.819573	-0.003698	0.001293	-0.003107
04073	11593311	-0.034151	0.052637	-9.842496	-0.006537	-0.000113	-0.002982
04074	11593336	-0.009295	0.036663	-9.833031	-0.007766	-0.003496	-0.001137
04075	11593361	-0.031131	0.033376	-9.825730	-0.000873	0.001018	-0.004530
04076	11593386	-0.005047	0.031508	-9.802860	-0.005865	0.000799	-0.005034
04077	11593411	-0.039435	0.052433	-9.833370	-0.007001	-0.001466	-0.000232
04078	11593436	-0.038664	0.054426	-9.809887	-0.003953	-0.000645	-0.001064
04079	11593461	-0.030818	0.053553	-9.837709	-0.007181	0.002332	-0.000590
04080	11593486	-0.030902	0.045811	-9.826694	-0.006746	-0.003271	0.001881
04081	11593511	-0.042893	0.052532	-9.811293	-0.007388	0.000913	0.002797
04082	11593536	0.005793	0.055810	-9.826408	-0.012720	0.003597	0.001286
04083	11593561	-0.012777	0.046887	-9.821993	-0.005923	-0.001131	0.000025
04084	11593586	-0.054853	0.059180	-9.816025	-0.011377	0.001289	-0.001167
04085	11593611	-0.031368	0.037353	-9.807521	-0.001413	-0.004290	-0.003847
04086	11593636	-0.018699	0.050284	-9.804708	-0.001265	-0.007066	-0.004059
04087	11593661	-0.028642	0.055089	-9.814728	-0.005190	-0.000285	-0.003432
04088	11593686	-0.020962	0.053447	-9.823875	-0.006287	-0.002116	-0.004341
04089	11593711	-0.024006	0.061708	-9.803729	-0.010173	0.001833	-0.001037
04090	11593736	-0.040493	0.051719	-9.819935	-0.007533	-0.000647	0.000679
04091	11593761	-0.030338	0.030332	-9.808480	-0.006998	-0.005342	0.003533
04092	11593786	-0.017451	0.044503	-9.825325	-0.005211	0.002491	-0.003870
04093	11593811	-0.003161	0.040952	-9.826832	-0.007421	-0.002512	-0.000881
04094	11593836	-0.017965	0.051304	-9.834914	-0.005911	0.000481	-0.002085
04095	11593861	-0.029873	0.036950	-9.806561	-0.004902	0.001013	-0.002468
04096	11593886	-0.021129	0.064205	-9.815729	-0.002383	-0.001654	-0.002101
04097	11593911	-0.012930	0.058548	-9.811449	-0.004785	0.003804	0.000307
04098	11593936	-0.013232	0.037321	-9.816724	-0.006431	-0.003870	-0.006656
04099	11593961	-0.014009	0.025244	-9.807128	-0.003223	-0.001536	-0.001588
04100	11593986	0.007481	0.037422	-9.839350	-0.005914	0.002675	-0.000854
04101	11594011	0.004829	0.045136	-9.819203	-0.003557	-0.000699	0.001624
04102	11594036	-0.000607	0.026040	-9.818214	-0.002138	0.000544	-0.003511
04103	11594061	-0.031083	0.060462	-9.824788	-0.002657	-0.005539	-0.002767
04104	11594086	-0.000811	0.048166	-9.834038	-0.009206	-0.000943	-0.006893
04105	11594111	-0.009695	0.038641	-9.838783	-0.007230	0.001554	-0.002842
04106	11594136	-0.031443	0.048921	-9.816157	-0.004518	-0.003438	-0.003967
04107	11594161	-0.018064	0.043742	-9.807108	-0.007446	0.000322	-0.001374
04108	11594186	-0.044396	0.052393	-9.805542	-0.003915	-0.001806	0.000146
04109	11594211	-0.012635	0.029566	-9.805685	-0.005183	-0.000212	-0.001195
04110	11594236	-0.034228	0.042871	-9.825241	-0.006206	-0.008376	-0.000590
04111	11594261	-0.024019	0.031465	-9.820491	-0.001453	-0.001130	-0.006013
04112	11594286	-0.008018	0.017811	-9.837824	-0.009519	0.000931	-0.003286
04113	11594311	-0.014592	0.036798	-9.818625	-0.003091	-0.001727	-0.000754
04114	11594336	-0.021687	0.040819	-9.838724	-0.002515	-0.001788	-0.001074
04115	11594361	-0.038845	0.070138	-9.812765	-0.003730	-0.001937	-0.004216
04116	11594386	-0.006288	0.025738	-9.832573	-0.002475	-0.005083	-0.002056
04117	11594411	-0.018162	0.023673	-9.832507	-0.002579	-0.001457	0.001109
04118	11594436	-0.016441	0.024116	-9.795607	-0.005110	-0.000340	-0.000170
04119	11594461	-0.019054	0.042804	-9.806621	-0.006901	-0.002632	0.000599
04120	11594486	-0.009056	0.046137	-9.802842	-0.005005	0.000635	0.001186
04121	11594511	-0.021543	0.060019	-9.821479	-0.006442	-0.002748	0.003032
04122	11594536	-0.038477	0.042310	-9.824740	-0.003250	-0.004709	-0.000963
04123	11594561	-0.014525	0.033994	-9.816229	-0.006881	0.000522	-0.006574
04124	11594586	-0.036700	0.049164	-9.805578	-0.003989	0.000656	0.000800
04125	11594611	-0.033119	0.039197	-9.836263	-0.003666	-0.003286	0.002192
04126	11594636	-0.036284	0.042985	-9.800307	-0.008924	-0.004989	0.004508
04127	11594661	-0.033393	0.048308	-9.809911	-0.004290	-0.004011	0.000778
04128	11594686	-0.009486	0.054120	-9.825837	-0.005771	0.002098	-0.002331
04129	11594711	-0.026508	0.060926	-9.790288	-0.006500	-0.003210	-0.001906
04130	11594736	-0.009895	0.013827	-9.828228	-0.006969	0.001691	-0.001307
04131	11594761	-0.012072	0.026981	-9.822952	-0.006703	-0.002499	0.002904
04132	11594786	0.000880	0.046642	-9.796185	-0.003710	-0.001794	0.004822
04133	11594811	0.015244	0.049901	-9.813034	-0.003666	0.000592	0.001758
04134	11594836	-0.002048	0.023700	-9.817719	-0.003685	-0.000630	0.002201
04135	11594861	-0.005690	0.048681	-9.811002	-0.001796	0.000304	0.003608
04136	11594886	-0.027116	0.056788	-9.832949	-0.002281	-0.000808	-0.000368
04137	11594911	-0.040363	0.062615	-9.791183	-0.002448	-0.003594	-0.001277
04138	11594936	-0.008646	0.047519	-9.800446	-0.005686	-0.002813	-0.003833
04139	11594961	-0.010106	0.023683	-9.821045	-0.004452	-0.001104	-0.001460
04140	11594986	-0.006428	0.033937	-9.814352	0.000821	0.002082	-0.003567
04141	11595011	-0.027145	0.055788	-9.831023	-0.002810	-0.000042	0.001244
04142	11595036	-0.016188	0.022655	-9.826279	-0.000934	0.003418	0.002410
04143	11595061	-0.027897	0.040831	-9.837733	-0.009780	-0.002746	0.000866
04144	11595086	-0.011885	0.048095	-9.809059	-0.003903	0.001939	0.000741
04145	11595111	-0.023061	0.037718	-9.823376	-0.002919	0.003183	-0.002396
04146	11595136	-0.022624	0.032878	-9.815234	-0.005580	0.000301	0.000671
04147	11595161	-0.017325	0.025402	-9.818130	-0.005534	-0.002858	0.004569
04148	11595186	-0.018580	0.054016	-9.829635	-0.000830	-0.006342	-0.001301
04149	11595211	-0.014224	0.047763	-9.823423	-0.002997	-0.000104	0.001948
04150	11595236	-0.027982	0.038849	-9.809929	0.001498	-0.000875	0.000392
04151	11595261	-0.031214	0.037112	-9.821421	-0.001803	0.000295	-0.001325
04152	11595286	-0.017342	0.037380	-9.827238	-0.002271	0.002806	-0.002463
04153	11595311	0.008313	0.042930	-9.827852	-0.003968	-0.000526	-0.006266
04154	11595336	-0.019149	0.032905	-9.842568	-0.007404	0.000836	-0.003295
04155	11595361	0.001258	0.059737	-9.815365	-0.004406	-0.004593	-0.000767
04156	11595386	-0.019992	0.062226	-9.839219	-0.003591	0.000206	0.000606
04157	11595411	-0.004101	0.046299	-9.836893	-0.006452	-0.000496	-0.000551
04158	11595436	-0.013374	0.057636	-9.813367	-0.006963	0.003698	0.002038
04159	11595461	-0.009778	0.039951	-9.835423	-0.002599	-0.002809	0.002190
04160	11595486	-0.018619	0.053764	-9.812861	-0.003919	0.000064	-0.001766
04161	11595511	-0.005558	0.039333	-9.817719	-0.005107	0.001335	-0.001563
04162	11595536	-0.025742	0.049421	-9.810905	-0.007670	-0.000648	-0.002275
04163	11595561	-0.036244	0.048557	-9.798866	-0.002301	0.002235	0.002277
04164	11595586	-0.037298	0.057250	-9.806542	-0.006104	-0.001794	-0.004849
04165	11595611	-0.008158	0.033045	-9.845024	-0.004601	0.001536	-0.002910
04166	11595636	-0.023577	0.032856	-9.814262	-0.004454	0.001094	0.001249
04167	11595661	-0.032020	0.025322	-9.828120	-0.002247	-0.001703	0.002709
04168	11595686	-0.005453	0.032185	-9.816753	-0.004539	0.001274	-0.005542
04169	11595711	-0.019504	0.012073	-9.813797	-0.008382	0.001661	-0.002646
04170	11595736	-0.034308	0.041926	-9.795528	-0.005393	-0.001907	-0.005239
04171	11595761	-0.008032	0.018743	-9.840226	-0.004479	-0.002331	-0.000952
04172	11595786	-0.019335	0.068412	-9.807597	-0.004537	-0.002600	-0.003575
04173	11595811	-0.033067	0.034816	-9.825725	-0.004156	-0.000396	-0.003760
04174	11595836	-0.000838	0.022394	-9.856081	-0.005826	0.000100	0.000864
04175	11595861	-0.022741	0.041419	-9.814268	-0.005588	0.002357	-0.003287
04176	11595886	-0.012495	0.032087	-9.847403	-0.004657	-0.004919	-0.000703
04177	11595911	-0.017742	0.021541	-9.817171	-0.003143	-0.004254	-0.002819
04178	11595936	-0.019942	0.042409	-9.812849	-0.006332	-0.002359	0.001685
04179	11595961	-0.021179	0.053535	-9.860300	-0.005727	0.000679	-0.001436
04180	11595986	-0.023460	0.054998	-9.803241	-0.005411	-0.001194	-0.003444
04181	11596011	-0.011003	0.050494	-9.810019	-0.004494	-0.001943	-0.001329
04182	11596036	-0.048397	0.067331	-9.796411	-0.001775	0.001533	0.000478
04183	11596061	-0.048825	0.076333	-9.823245	-0.001347	0.001852	-0.003941
04184	11596086	-0.037494	0.042783	-9.817557	-0.011382	0.001349	-0.003858
04185	11596111	-0.015166	0.044895	-9.816716	-0.008541	-0.001568	-0.002921
04186	11596136	-0.038412	0.057322	-9.848219	-0.002457	0.004737	-0.002709
04187	11596161	-0.016141	0.045771	-9.814781	-0.005838	0.000487	0.000739
04188	11596186	-0.023762	0.036543	-9.808044	-0.005332	-0.005968	-0.001603
04189	11596211	-0.011414	0.043417	-9.810978	-0.005136	-0.004098	-0.004865
04190	11596236	-0.037111	0.055210	-9.830981	-0.002135	-0.001720	-0.004412
04191	11596261	-0.046335	0.059178	-9.816079	-0.004454	-0.002852	0.000271
04192	11596286	-0.033812	0.047921	-9.815180	-0.002660	-0.003539	-0.005317
04193	11596311	-0.042540	0.027410	-9.812731	-0.007707	0.002448	-0.004375
04194	11596336	-0.041003	0.055537	-9.818977	-0.005265	0.000235	-0.002272
04195	11596361	-0.036754	0.033150	-9.845358	-0.004299	-0.002010	-0.002550
04196	11596386	-0.034060	0.027450	-9.809898	-0.004716	-0.005186	-0.003718
04197	11596411	-0.036109	0.009142	-9.823788	-0.004549	-0.000006	-0.000609
04198	11596436	-0.050796	0.032360	-9.804546	-0.003418	0.001180	0.002986
04199	11596461	-0.036053	-0.004311	-9.810364	-0.005782	-0.004044	-0.004865
04200	11596486	-0.026051	0.002363	-9.810406	-0.003277	0.002538	-0.000796
04201	11596511	-0.013377	0.012893	-9.806168	-0.001484	0.002107	-0.003688
04202	11596536	-0.048188	-0.004534	-9.841454	-0.002982	0.001317	0.002919
04203	11596561	-0.041552	0.030974	-9.829992	-0.006942	0.000915	-0.000732
04204	11596586	-0.046899	0.028112	-9.804546	-0.000612	0.003099	-0.001438
04205	11596611	-0.028833	0.023555	-9.798420	-0.007758	-0.001551	0.000797
04206	11596636	-0.019958	0.005743	-9.807086	-0.004032	-0.000323	-0.002930
04207	11596661	-0.049972	0.049668	-9.817498	-0.005814	-0.000684	-0.004204
04208	11596686	-0.032672	0.045406	-9.834355	-0.005311	-0.000550	-0.005746
04209	11596711	-0.037481	0.070927	-9.801261	-0.005761	-0.000295	-0.002982
04210	11596736	-0.029625	0.050198	-9.806574	-0.001915	-0.002487	-0.001919
04211	11596761	-0.019499	0.053057	-9.828197	-0.005214	-0.003710	-0.004926
04212	11596786	-0.034104	0.039534	-9.829551	-0.001872	-0.003783	-0.001599
04213	11596811	-0.021641	0.040856	-9.839684	-0.005218	0.001277	0.001645
04214	11596836	-0.033957	0.064255	-9.830534	-0.002928	-0.006366	0.004737
04215	11596861	-0.010048	0.048578	-9.805715	-0.005603	-0.003123	-0.000183
04216	11596886	-0.001027	0.064653	-9.828292	-0.007515	0.000446	-0.005031
04217	11596911	-0.017683	0.063948	-9.827715	-0.002617	0.001767	-0.002211
04218	11596936	-0.000972	0.042899	-9.800005	-0.006633	-0.001217	-0.003116
04219	11596961	-0.023824	0.045523	-9.802771	-0.005956	0.000229	0.000998
04220	11596986	-0.030398	0.044283	-9.819512	-0.009595	-0.000221	0.000559
04221	11597011	0.007410	0.035373	-9.828800	-0.005007	-0.001636	-0.000498
04222	11597036	0.000109	0.039773	-9.813905	-0.003612	-0.001159	0.000212
04223	11597061	-0.008422	0.035311	-9.809553	-0.003684	-0.000964	-0.000045
04224	11597086	-0.032005	0.013191	-9.806072	-0.004642	-0.003302	-0.001141
04225	11597111	-0.018865	0.027646	-9.810453	-0.004917	-0.006801	-0.001994
04226	11597136	0.013692	-0.023196	-9.811556	-0.002778	-0.003594	-0.000128
04227	11597161	-0.012089	0.022771	-9.800900	-0.001527	0.001658	-0.000557
04228	11597186	-0.037097	0.008597	-9.818029	-0.006884	0.001244	0.001264
04229	11597211	-0.037329	0.022585	-9.803653	-0.006619	0.000794	-0.001504
04230	11597236	-0.035663	0.024153	-9.844887	-0.003663	0.000398	0.001565
04231	11597261	-0.035292	0.027012	-9.844404	-0.005054	-0.002672	-0.003253
04232	11597286	-0.026806	0.017399	-9.801775	-0.002672	0.001378	0.000222
04233	11597311	-0.044670	0.035178	-9.795940	-0.005576	0.002567	0.002420
04234	11597336	-0.056258	0.054318	-9.815549	-0.005832	0.000818	0.005046
04235	11597361	-0.027486	0.048752	-9.829579	-0.008059	0.001606	-0.002262
04236	11597386	-0.054217	0.034272	-9.804528	-0.006303	-0.005142	0.000842
04237	11597411	-0.027657	0.047382	-9.806103	-0.005217	-0.001249	-0.000167
04238	11597436	-0.046879	0.063751	-9.807926	-0.001119	-0.000982	0.001039
04239	11597461	-0.022791	0.056607	-9.843032	-0.007790	-0.001109	-0.003365
04240	11597486	-0.034259	0.073826	-9.863596	-0.007711	0.001040	0.000940
04241	11597511	-0.045283	0.066195	-9.839563	-0.005031	-0.000991	-0.003117
04242	11597536	-0.004567	0.076853	-9.817724	-0.007954	0.002180	-0.005852
04243	11597561	-0.038312	0.078674	-9.839122	-0.010997	-0.000644	-0.000852
04244	11597586	-0.025585	0.065962	-9.805160	-0.008409	-0.005898	-0.004289
04245	11597611	-0.011919	0.061664	-9.830153	-0.001341	0.001791	0.000213
04246	11597636	-0.006063	0.040604	-9.812432	-0.002712	0.000669	0.000083
04247	11597661	0.009748	0.034305	-9.818750	-0.005685	-0.000615	-0.000682
04248	11597686	0.016978	0.073491	-9.835089	-0.000899	-0.002274	-0.003269
04249	11597711	0.007286	0.043317	-9.822094	-0.005685	-0.000615	-0.001967
04250	11597736	-0.014353	0.050439	-9.809041	-0.002027	-0.002934	-0.000575
04251	11597761	-0.012713	0.039099	-9.810000	-0.006270	0.001967	-0.001113
04252	11597786	-0.009263	0.031286	-9.822970	-0.004837	-0.001241	-0.000682
04253	11597811	-0.001631	0.023058	-9.806215	-0.005704	-0.001839	0.000596
04254	11597836	-0.023543	0.028959	-9.803713	-0.007665	0.003685	-0.000775
04255	11597861	-0.022965	0.022962	-9.820014	-0.002269	0.001003	0.001118
04256	11597886	-0.010610	0.031409	-9.835423	-0.003788	-0.000001	-0.001384
04257	11597911	-0.015219	0.011797	-9.825808	-0.003469	-0.004193	-0.003529
04258	11597936	-0.016440	0.044266	-9.835397	-0.009108	0.000226	-0.004452
04259	11597961	-0.048585	0.014156	-9.822774	-0.006782	-0.001977	0.003041
04260	11597986	-0.025648	0.039311	-9.809458	0.000666	-0.000955	-0.001660
04261	11598011	-0.026650	0.042985	-9.796524	-0.003570	0.001428	-0.003049
04262	11598036	-0.041082	0.025630	-9.818495	-0.008501	0.001602	-0.000462
04263	11598061	-0.025432	0.027724	-9.820014	-0.007138	-0.003350	-0.000817
04264	11598086	-0.023474	0.015526	-9.799880	-0.002164	-0.000548	-0.001004
04265	11598111	-0.036546	0.048120	-9.831458	-0.003709	-0.000316	-0.001320
04266	11598136	-0.039460	0.053951	-9.837203	-0.008869	-0.003451	-0.004722
04267	11598161	-0.005989	0.021419	-9.798061	-0.003305	-0.005284	-0.002503
04268	11598186	-0.025806	0.047318	-9.797965	-0.006695	-0.002357	0.006820
04269	11598211	-0.009499	0.032245	-9.791345	-0.006057	-0.005272	-0.003073
04270	11598236	-0.046636	0.055269	-9.841001	-0.005251	-0.004616	-0.004356
04271	11598261	-0.018947	0.059106	-9.848802	-0.008093	0.000572	-0.002779
04272	11598286	-0.048070	0.063484	-9.851538	-0.005533	-0.001647	-0.003242
04273	11598311	-0.013629	0.032593	-9.819115	-0.005631	-0.004752	-0.004548
04274	11598336	-0.016233	0.025753	-9.844500	-0.000414	-0.003490	-0.001089
04275	11598361	-0.016162	0.009587	-9.804708	-0.007649	0.002775	-0.002904
04276	11598386	-0.063954	0.055535	-9.805916	-0.006405	-0.000633	-0.006248
04277	11598411	-0.048831	0.032058	-9.817022	-0.001329	-0.002791	-0.000313
04278	11598436	-0.041530	0.033006	-9.838134	-0.003515	0.003491	-0.004314
04279	11598461	-0.052512	0.051436	-9.806935	-0.011545	-0.005622	0.000213
04280	11598486	-0.059126	0.032446	-9.844278	-0.009118	-0.001584	-0.005868
04281	11598511	-0.056947	0.044625	-9.836149	-0.002366	-0.000028	0.000346
04282	11598536	-0.027519	0.028654	-9.791714	-0.003019	-0.001922	-0.000632
04283	11598561	-0.034334	0.060909	-9.823810	-0.009896	-0.000811	0.002088
04284	11598586	-0.037398	0.030473	-9.823781	-0.004004	-0.002509	0.005852
04285	11598611	-0.022335	0.051588	-9.826253	-0.007308	-0.001997	-0.001386
04286	11598636	-0.014537	0.064247	-9.811454	-0.004840	-0.003323	-0.005442
04287	11598661	-0.039792	0.075709	-9.832410	-0.010194	-0.004323	-0.007416
04288	11598686	-0.022488	0.057231	-9.819548	-0.009659	-0.004557	-0.001328
04289	11598711	0.007815	0.043477	-9.831208	-0.006109	-0.001398	-0.001970
04290	11598736	-0.009454	0.078123	-9.811960	-0.007747	-0.002664	-0.005876
04291	11598761	0.027303	0.047051	-9.829865	-0.008452	-0.000079	-0.001191
04292	11598786	-0.002987	0.053432	-9.806709	-0.006180	-0.001469	-0.004014
04293	11598811	0.020341	0.028300	-9.820241	-0.006548	0.000404	-0.002664
04294	11598836	0.002997	0.036063	-9.817761	-0.001527	-0.002477	-0.000641
04295	11598861	0.014738	0.036133	-9.779471	-0.005631	-0.002295	-0.002103
04296	11598886	0.003460	0.032965	-9.800023	-0.004044	0.002785	0.003314
04297	11598911	0.010630	0.001629	-9.827370	-0.000064	-0.004265	-0.000393
04298	11598936	-0.000144	0.036410	-9.840745	-0.006187	-0.000753	0.000602
04299	11598961	-0.004227	0.048683	-9.811008	-0.002097	0.003852	0.002287
04300	11598986	-0.007797	0.034262	-9.832561	-0.002967	-0.001472	-0.001268
04301	11599011	-0.019891	0.006443	-9.823871	-0.003646	-0.002457	-0.003321
04302	11599036	-0.014481	0.021840	-9.801847	-0.001979	-0.000352	-0.002298
04303	11599061	-0.042496	0.032032	-9.835738	-0.007065	0.000325	-0.004263
04304	11599086	-0.030103	0.019673	-9.825730	-0.005977	-0.005919	-0.003590
04305	11599111	-0.052898	0.046499	-9.799737	-0.002259	-0.001647	-0.000818
04306	11599136	-0.037588	0.023166	-9.841996	-0.007658	-0.001237	-0.005229
04307	11599161	-0.041758	0.039340	-9.818972	-0.002964	-0.001864	-0.005370
04308	11599186	-0.066236	0.052069	-9.802550	-0.004326	0.003289	-0.001489
04309	11599211	-0.041733	0.061721	-9.793568	-0.003676	-0.001355	-0.001262
04310	11599236	-0.028488	0.050224	-9.831987	-0.009748	-0.001785	-0.002471
04311	11599261	-0.041120	0.025610	-9.821373	-0.003351	-0.003806	-0.004484
04312	11599286	-0.053486	0.044985	-9.792547	-0.005910	-0.003526	-0.000815
04313	11599311	-0.018835	0.010104	-9.843045	-0.003217	0.000265	-0.003570
04314	11599336	-0.024188	0.034590	-9.809470	-0.000066	-0.001730	0.002378
04315	11599361	-0.010281	0.040384	-9.826315	-0.005656	-0.001444	0.001751
04316	11599386	-0.000757	0.035685	-9.826363	-0.004095	-0.002661	-0.003324
04317	11599411	-0.018222	0.046281	-9.787453	-0.005750	-0.000745	-0.002345
04318	11599436	-0.004164	0.040112	-9.812922	0.000575	0.000344	0.001357
04319	11599461	-0.019142	0.058996	-9.814291	-0.005075	-0.001569	-0.000302
04320	11599486	0.017793	0.038245	-9.820234	-0.007120	-0.000195	-0.005545
04321	11599511	-0.004462	0.030457	-9.826821	-0.005531	-0.003783	-0.005506
04322	11599536	0.002207	0.060144	-9.811054	-0.006185	-0.001343	-0.005490
04323	11599561	-0.027011	0.047433	-9.837746	-0.006285	-0.004248	-0.004990
04324	11599586	-0.014338	0.050309	-9.806162	0.000875	-0.001802	-0.005379
04325	11599611	-0.002824	0.044248	-9.802866	0.001062	0.002736	-0.002734
04326	11599636	0.007809	0.041471	-9.823060	-0.005038	0.001468	0.000229
04327	11599661	-0.021570	0.064734	-9.821468	-0.001371	0.000760	0.000085
04328	11599686	-0.024777	0.047018	-9.810906	-0.002971	-0.005342	0.001594
04329	11599711	-0.013922	0.033343	-9.838284	-0.005347	-0.001124	-0.001198
04330	11599736	0.001496	0.042605	-9.810561	-0.004375	0.000244	-0.004010
04331	11599761	-0.017253	0.027445	-9.825331	-0.006679	0.000337	-0.003304
04332	11599786	-0.011319	0.040347	-9.825842	-0.007559	-0.006074	-0.000124
04333	11599811	-0.016791	0.023900	-9.809977	-0.005771	0.002161	-0.002976
04334	11599836	-0.026742	0.055173	-9.816645	-0.006448	-0.001086	-0.004460
04335	11599861	-0.011649	0.042359	-9.823502	-0.006241	0.000866	-0.000931
04336	11599886	-0.031396	0.062205	-9.826797	-0.002231	-0.000094	0.002898
04337	11599911	-0.011367	0.062097	-9.832172	-0.004387	-0.005119	-0.000398
04338	11599936	-0.035965	0.048485	-9.828685	-0.007403	-0.001164	-0.002289
04339	11599961	-0.023950	0.043009	-9.833061	-0.004317	0.000706	-0.001197
04340	11599986	-0.021964	0.022192	-9.807181	-0.005412	-0.003128	-0.001095
04341	11600011	-0.046935	0.040433	-9.809464	-0.006688	-0.003482	-0.002497
04342	11600036	-0.024162	0.044958	-9.807186	-0.006728	-0.004053	0.000127
04343	11600061	-0.039436	0.051003	-9.813814	-0.004099	-0.004199	0.001532
04344	11600086	-0.024243	0.022879	-9.818202	-0.010575	-0.001995	-0.003445
04345	11600111	-0.034233	0.018221	-9.806639	-0.002906	0.004800	-0.000991
04346	11600136	-0.017902	0.035369	-9.799069	-0.001441	-0.004987	0.004148
04347	11600161	-0.003252	0.025071	-9.826451	-0.000764	0.001803	0.000335
04348	11600186	-0.016949	0.042330	-9.815847	-0.005782	-0.003777	-0.001797
04349	11600211	-0.032348	0.033352	-9.831577	-0.005707	0.004098	-0.004704
04350	11600236	-0.018146	0.033431	-9.824467	-0.005293	-0.001068	-0.004484
04351	11600261	0.006957	0.051466	-9.838009	-0.003766	0.001289	-0.003512
04352	11600286	0.000499	0.031425	-9.833181	-0.005640	0.000162	0.000466
04353	11600311	-0.002637	0.044667	-9.810638	0.003201	0.001866	-0.002310
04354	11600336	-0.022259	0.040999	-9.795200	-0.004724	-0.000338	0.001237
04355	11600361	0.003115	0.054292	-9.836082	-0.008403	0.002572	-0.000285
04356	11600386	-0.022829	0.054451	-9.806232	-0.007373	-0.001942	-0.002298
04357	11600411	-0.032354	0.052430	-9.804271	-0.006415	-0.002187	-0.006531
04358	11600436	-0.005162	0.056275	-9.817820	-0.007868	-0.002198	0.002125
04359	11600461	0.003205	0.043202	-9.826499	-0.004867	0.001855	-0.000110
04360	11600486	-0.022305	0.057605	-9.826366	-0.005250	-0.004621	-0.004882
04361	11600511	-0.003591	0.054057	-9.822612	-0.010264	0.004731	-0.001998
04362	11600536	-0.019862	0.051706	-9.810078	-0.005807	0.003587	0.000229
04363	11600561	-0.040933	0.051420	-9.810929	-0.002138	-0.005001	0.005174
04364	11600586	-0.019808	0.048565	-9.826380	-0.002620	-0.004438	-0.000145
04365	11600611	-0.010976	0.042915	-9.855181	0.001244	-0.004748	0.004144
04366	11600636	-0.048012	0.048923	-9.809935	-0.003637	-0.004388	0.001274
04367	11600661	-0.032758	0.027721	-9.836846	-0.002359	-0.000231	0.002056
04368	11600686	-0.033990	0.039286	-9.818154	-0.004895	-0.001369	0.000075
04369	11600711	-0.047339	0.069222	-9.799884	-0.006205	-0.000034	0.001882
04370	11600736	-0.035444	0.032297	-9.796572	-0.003804	0.000842	-0.001520
04371	11600761	-0.035578	0.022416	-9.835392	-0.003350	0.000262	-0.001335
04372	11600786	-0.055364	0.033246	-9.808940	-0.008000	0.001597	-0.005162
04373	11600811	-0.028768	0.038331	-9.812903	-0.006992	0.000599	0.001247
04374	11600836	-0.029110	0.036259	-9.833038	-0.003937	-0.001162	-0.000890
04375	11600861	-0.034121	0.019490	-9.823412	-0.008950	0.003529	-0.001818
04376	11600886	-0.041671	0.045430	-9.823388	-0.004093	-0.000067	0.000530
04377	11600911	-0.055817	0.040764	-9.841537	-0.001004	-0.003250	-0.003988
04378	11600936	-0.017441	0.032325	-9.783721	-0.003473	0.000457	-0.000370
04379	11600961	-0.036806	0.038002	-9.824369	-0.008655	-0.001954	-0.000240
04380	11600986	-0.020773	0.044053	-9.809118	-0.006534	-0.000045	-0.001258
04381	11601011	-0.012129	0.004975	-9.817780	-0.008407	-0.001429	0.002196
04382	11601036	-0.019059	0.021939	-9.816307	-0.008185	-0.002331	0.002386
04383	11601061	0.003612	0.039722	-9.820747	-0.001515	-0.001198	-0.003465
04384	11601086	-0.008810	0.048710	-9.819720	-0.009276	-0.000283	0.000854
04385	11601111	-0.009167	0.038888	-9.830742	-0.008073	-0.001951	0.000079
04386	11601136	-0.006024	0.044147	-9.800558	-0.008689	0.001536	-0.000800
04387	11601161	-0.010015	0.024233	-9.803885	-0.007434	0.004332	0.001006
04388	11601186	-0.017778	0.038676	-9.827339	-0.005290	-0.003064	-0.002249
04389	11601211	0.009791	0.043171	-9.820294	-0.003377	-0.000571	-0.000125
04390	11601236	0.002592	0.045908	-9.817380	-0.005855	-0.001459	-0.002748
04391	11601261	-0.008827	0.045317	-9.815882	-0.007033	-0.000244	0.001045
04392	11601286	-0.018844	0.048930	-9.814398	-0.007311	-0.000073	-0.006591
04393	11601311	0.009623	0.047197	-9.801600	-0.006887	0.001107	-0.000103
04394	11601336	-0.016602	0.060051	-9.825437	-0.007750	-0.001808	0.003408
04395	11601361	-0.032297	0.067164	-9.836863	-0.005883	0.001575	-0.002986
04396	11601386	-0.012686	0.047594	-9.813945	-0.007054	-0.002001	-0.003715
04397	11601411	-0.009445	0.045084	-9.800546	-0.008005	-0.004271	-0.001538
04398	11601436	0.007076	0.062954	-9.812133	-0.006554	-0.001408	-0.000373
04399	11601461	0.004580	0.046126	-9.829849	-0.004023	-0.000393	-0.000508
04400	11601486	-0.032980	0.070531	-9.809046	-0.009511	0.001194	-0.000480
04401	11601511	-0.035072	0.059031	-9.833489	-0.009657	0.001445	-0.001822
04402	11601536	-0.028659	0.032204	-9.815788	-0.004831	0.002630	-0.002916
04403	11601561	-0.043586	0.046734	-9.816658	-0.003590	0.002071	-0.002539
04404	11601586	-0.030902	0.022349	-9.822965	-0.007890	-0.001559	0.000209
04405	11601611	-0.012712	0.012778	-9.803867	-0.004099	0.004199	0.002088
04406	11601636	-0.005785	0.026629	-9.808230	-0.001597	-0.000143	0.002185
04407	11601661	-0.021823	0.021334	-9.814369	-0.000300	0.003102	-0.000939
04408	11601686	-0.039258	0.042631	-9.822923	-0.004700	-0.001307	-0.000247
04409	11601711	-0.049679	0.038120	-9.818071	-0.002795	0.000790	-0.003447
04410	11601736	-0.027176	0.027425	-9.815783	0.000218	-0.000830	0.000702
04411	11601761	-0.034295	0.030490	-9.832531	-0.003500	-0.003298	-0.005010
04412	11601786	-0.024938	0.041500	-9.829217	-0.004491	-0.002146	-0.002691
04413	11601811	-0.006817	0.034948	-9.822112	-0.004216	-0.004791	-0.002383
04414	11601836	-0.023140	0.037267	-9.801918	-0.005454	-0.002024	-0.000185
04415	11601861	-0.039029	0.058207	-9.816699	-0.005740	-0.005075	-0.002316
04416	11601886	-0.017697	0.020809	-9.810078	-0.003918	-0.004143	-0.002058
04417	11601911	-0.015920	0.039546	-9.822559	-0.000888	-0.004596	0.001198
04418	11601936	-0.032079	0.045178	-9.829664	-0.003077	0.000010	0.000389
04419	11601961	-0.027848	0.053846	-9.834957	-0.004113	0.002185	-0.004396
04420	11601986	-0.007825	0.049803	-9.828835	-0.009094	0.001775	-0.003237
04421	11602011	-0.025149	0.027418	-9.845519	0.001453	-0.003716	0.000106
04422	11602036	-0.028268	0.037883	-9.816748	-0.002621	-0.002563	-0.003144
04423	11602061	-0.041760	0.078326	-9.799914	-0.007775	-0.003432	-0.001919
04424	11602086	-0.021005	0.036392	-9.835476	-0.004499	-0.001955	-0.004227
04425	11602111	-0.037698	0.027359	-9.815257	-0.006101	-0.004049	-0.003913
04426	11602136	-0.041032	0.068521	-9.813815	-0.003646	-0.000255	-0.000633
04427	11602161	-0.031290	0.047686	-9.807629	-0.002517	0.000805	0.001682
04428	11602186	-0.038189	0.047235	-9.844971	-0.004785	0.001208	-0.001457
04429	11602211	-0.019558	0.034436	-9.826374	-0.008343	0.000438	-0.001645
04430	11602236	-0.016072	0.053189	-9.810101	-0.007945	0.003794	-0.005727
04431	11602261	-0.020570	0.070193	-9.814394	0.000395	-0.000507	-0.001794
04432	11602286	-0.009581	0.063235	-9.808688	-0.008503	-0.000137	0.004192
04433	11602311	-0.007802	0.042039	-9.824997	-0.002192	-0.001451	0.002053
04434	11602336	-0.022987	0.040484	-9.820598	-0.008020	0.002779	0.001384
04435	11602361	-0.023472	0.049323	-9.843610	-0.007278	0.001228	-0.001124
04436	11602386	0.003047	0.042358	-9.803003	-0.005245	0.001521	-0.003181
04437	11602411	0.020004	0.019306	-9.804517	-0.001204	-0.000474	-0.001414
04438	11602436	-0.022748	0.057589	-9.824930	-0.006266	-0.000362	-0.000940
04439	11602461	-0.014817	0.062903	-9.800518	0.000162	0.001445	0.005586
04440	11602486	0.005918	0.039557	-9.809244	0.000118	-0.002201	-0.003219
04441	11602511	0.027601	0.018508	-9.804076	-0.005156	-0.002995	0.001596
04442	11602536	-0.000020	0.035610	-9.829342	-0.003709	0.001614	-0.002933
04443	11602561	0.007441	0.042328	-9.829378	-0.002278	-0.005007	0.002031
04444	11602586	0.002568	0.046912	-9.821701	-0.005235	-0.002940	-0.003208
04445	11602611	0.010358	0.038081	-9.825569	-0.004818	-0.001764	-0.000706
04446	11602636	-0.001478	0.032225	-9.825981	-0.006400	-0.002173	0.002313
04447	11602661	-0.021453	0.041686	-9.843141	-0.000930	0.000693	-0.003710
04448	11602686	-0.024012	0.039922	-9.815804	-0.010623	-0.002311	-0.000498
04449	11602711	-0.042968	0.040993	-9.838717	-0.011487	-0.002903	0.004895
04450	11602736	-0.061165	0.034617	-9.810828	-0.007705	-0.003365	0.000328
04451	11602761	-0.050808	0.063200	-9.843008	-0.005411	-0.003392	-0.004421
04452	11602786	-0.047117	0.037507	-9.836292	-0.005980	0.004873	-0.001620
04453	11602811	-0.054368	0.023246	-9.807503	-0.005357	-0.003003	-0.001663
04454	11602836	-0.078969	0.061841	-9.839502	-0.006306	-0.004816	0.003335
04455	11602861	-0.079018	0.071794	-9.838061	-0.005357	0.001463	-0.000738
04456	11602886	-0.081463	0.029760	-9.824139	-0.002664	-0.001016	-0.002238
04457	11602911	-0.076203	0.064466	-9.822261	-0.003015	-0.001658	0.003213
04458	11602936	-0.058562	0.063683	-9.819471	-0.005898	0.001961	-0.003940
04459	11602961	-0.055603	0.024674	-9.840096	-0.005268	-0.001837	-0.003709
04460	11602986	-0.043097	0.047395	-9.830088	-0.002062	-0.001581	0.000325
04461	11603011	-0.052946	0.031879	-9.814220	-0.004739	-0.000216	-0.004092
04462	11603036	-0.040658	0.033755	-9.801817	-0.003430	0.003110	-0.001313
04463	11603061	-0.047111	0.048260	-9.796518	-0.001898	-0.000940	-0.002496
04464	11603086	-0.042579	0.033942	-9.818112	-0.004242	-0.005488	0.003384
04465	11603111	-0.027776	0.038825	-9.808116	-0.010163	0.003378	0.000940
04466	11603136	-0.026032	0.045383	-9.809089	-0.002928	-0.000368	0.001420
04467	11603161	-0.032064	0.043835	-9.835423	-0.004184	-0.001562	-0.001214
04468	11603186	-0.008627	0.027666	-9.812528	-0.005227	-0.000595	0.003664
04469	11603211	0.016535	0.034179	-9.817451	-0.003213	-0.001927	-0.000647
04470	11603236	0.012851	0.024996	-9.808326	-0.002603	0.003648	0.003424
04471	11603261	0.011315	0.028396	-9.813100	-0.005583	-0.004035	-0.000906
04472	11603286	-0.000361	0.010175	-9.810167	-0.005369	-0.004743	-0.001551
04473	11603311	0.037249	0.012571	-9.815627	-0.000988	-0.003301	0.002868
04474	11603336	0.016722	0.046575	-9.792048	0.000714	-0.000374	0.000185
04475	11603361	0.019441	0.025518	-9.806919	-0.001769	0.000878	-0.001727
04476	11603386	0.000669	0.052783	-9.836070	-0.006180	-0.003074	-0.000194
04477	11603411	-0.017218	0.069371	-9.819687	-0.000881	-0.003052	-0.003541
04478	11603436	-0.002809	0.015258	-9.799612	-0.008488	0.001153	0.001249
04479	11603461	-0.027405	0.010570	-9.826803	-0.003947	-0.000441	0.004373
04480	11603486	-0.021974	0.035301	-9.829718	-0.002570	0.000349	0.000526
04481	11603511	-0.035347	0.036470	-9.821981	-0.003324	-0.000310	-0.000057
04482	11603536	-0.050985	0.065323	-9.825270	-0.009085	-0.004350	0.001034
04483	11603561	-0.065221	0.055423	-9.813205	-0.006643	-0.004692	0.000641
04484	11603586	-0.040206	0.041049	-9.812843	-0.004339	0.001343	-0.002484
04485	11603611	-0.007584	0.032190	-9.828353	-0.006449	0.001372	-0.002478
04486	11603636	-0.031217	0.050924	-9.831106	-0.004755	0.000174	-0.002801
04487	11603661	-0.042460	0.056977	-9.802782	-0.004420	-0.006472	-0.001621
04488	11603686	-0.035939	0.054305	-9.841162	-0.004089	-0.000852	-0.004926
04489	11603711	-0.037666	0.059978	-9.805201	-0.007920	-0.000325	0.002719
04490	11603736	-0.026002	0.053886	-9.834497	-0.004989	-0.004473	0.000696
04491	11603761	-0.035067	0.037590	-9.799938	-0.006706	-0.003223	-0.004806
04492	11603786	-0.047835	0.046335	-9.826237	-0.001390	-0.000601	0.001991
04493	11603811	-0.008603	0.067730	-9.824042	-0.008316	-0.000536	-0.001772
04494	11603836	-0.017612	0.055924	-9.808177	-0.004254	-0.001173	-0.000055
04495	11603861	0.006447	0.048531	-9.831304	-0.005379	-0.000550	-0.003961
04496	11603886	0.004843	0.054887	-9.814996	-0.003298	-0.001092	-0.001796
04497	11603911	-0.023490	0.073099	-9.816294	-0.006799	-0.001925	-0.001527
04498	11603936	0.004439	0.042097	-9.809719	-0.010854	-0.005165	-0.000191
04499	11603961	0.014128	0.030105	-9.803528	-0.001666	-0.001894	0.001216
04500	11603986	-0.006718	0.055513	-9.797202	-0.008383	-0.001748	0.004824
04501	11604011	0.012214	0.045448	-9.842354	-0.004111	-0.004080	-0.003345
04502	11604036	0.006570	0.034074	-9.819317	-0.001121	-0.003113	0.001010
04503	11604061	0.000916	0.056690	-9.808747	-0.007527	-0.005426	-0.001420
04504	11604086	0.003226	0.051403	-9.833680	-0.005834	0.006363	-0.001234
04505	11604111	0.003909	0.048543	-9.804445	-0.002733	-0.000758	-0.000766
04506	11604136	0.021488	0.026383	-9.826099	-0.006866	0.000270	-0.002296
04507	11604161	-0.028546	0.057771	-9.815311	-0.000829	-0.002007	0.002943
04508	11604186	-0.033664	0.052568	-9.818638	-0.004239	0.000054	-0.003961
04509	11604211	-0.020426	0.058797	-9.811502	-0.002059	0.001965	-0.003320
04510	11604236	-0.048485	0.065920	-9.833906	-0.005201	0.000624	0.001366
04511	11604261	-0.046820	0.050431	-9.846372	-0.002399	0.000732	-0.001457
04512	11604286	-0.046810	0.036402	-9.820002	-0.008072	-0.000337	-0.003949
04513	11604311	-0.029451	0.043354	-9.802364	-0.003076	-0.006574	-0.001112
04514	11604336	-0.046929	0.045803	-9.819531	-0.004978	-0.000794	-0.001912
04515	11604361	-0.048724	0.039108	-9.819996	-0.002477	0.001316	-0.001717
04516	11604386	-0.042197	0.005826	-9.809476	-0.003041	-0.001088	-0.000444
04517	11604411	-0.068732	0.040955	-9.831881	-0.005107	-0.002737	-0.001088
04518	11604436	-0.027672	0.040664	-9.842157	-0.002758	-0.000376	-0.004545
04519	11604461	-0.030796	0.010899	-9.823436	-0.003295	-0.003085	0.002117
04520	11604486	-0.048920	0.047940	-9.808493	-0.003174	-0.000829	-0.000441
04521	11604511	-0.048359	0.053984	-9.830064	-0.002666	0.001384	0.000408
04522	11604536	-0.043984	0.013355	-9.833420	-0.007425	0.005743	-0.005139
04523	11604561	-0.035041	0.043653	-9.821026	-0.008680	-0.002660	0.003608
04524	11604586	-0.036022	0.044701	-9.799444	-0.008166	0.005686	0.004160
04525	11604611	-0.041930	0.025859	-9.813309	-0.006674	0.002271	-0.003746
04526	11604636	-0.014868	0.034000	-9.827364	-0.006136	-0.004959	-0.004947
04527	11604661	-0.026563	0.048595	-9.799981	-0.003852	0.002527	0.002974
04528	11604686	-0.010704	0.028230	-9.791428	-0.002976	-0.000946	0.001289
04529	11604711	0.003449	0.042160	-9.792453	-0.000781	0.000642	0.001805
04530	11604736	0.014286	0.025601	-9.814560	-0.003940	0.000903	0.001039
04531	11604761	0.004595	0.034520	-9.816903	-0.003535	-0.004129	-0.002129
04532	11604786	-0.008958	0.049987	-9.814930	-0.004254	-0.005563	-0.001875
04533	11604811	0.017605	0.057313	-9.804032	-0.007683	-0.002064	0.002572
04534	11604836	0.014034	0.044078	-9.813124	-0.005363	-0.003007	-0.005390
04535	11604861	0.025323	0.043886	-9.794003	-0.001194	-0.000601	0.000703
04536	11604886	-0.021892	0.061696	-9.816784	-0.003621	0.000773	-0.003317
04537	11604911	0.000520	0.060740	-9.825991	-0.006655	-0.004317	-0.000903
04538	11604936	0.003581	0.037764	-9.814989	0.000054	-0.006130	-0.001897
04539	11604961	-0.013400	0.031509	-9.816342	-0.008582	-0.000015	-0.000685
04540	11604986	-0.012089	0.035617	-9.809155	-0.002588	-0.001732	-0.005966
04541	11605011	-0.034178	0.052431	-9.810490	-0.005680	0.001657	0.003169
04542	11605036	-0.024013	0.043424	-9.829717	-0.006616	-0.003797	-0.001861
04543	11605061	-0.033027	0.042683	-9.821987	-0.004631	0.002898	0.000799
04544	11605086	-0.034133	0.051176	-9.817193	-0.009692	-0.001331	-0.000815
04545	11605111	-0.048094	0.029708	-9.823346	-0.004421	0.001989	-0.002089
04546	11605136	-0.055175	0.058743	-9.832911	-0.007619	-0.002135	0.000018
04547	11605161	-0.036807	0.035387	-9.815258	-0.005057	0.000443	0.003678
04548	11605186	-0.042805	0.032786	-9.832478	-0.006664	0.004479	0.001714
04549	11605211	-0.031405	0.028565	-9.829664	-0.002025	0.001000	-0.001010
04550	11605236	-0.055900	0.038078	-9.819489	-0.004752	-0.004223	-0.005905
04551	11605261	-0.018365	0.033588	-9.803378	-0.006093	-0.005651	0.003256
04552	11605286	-0.058184	0.062001	-9.802699	-0.003216	-0.000130	-0.006591
04553	11605311	-0.039714	0.038016	-9.806622	-0.002229	0.001243	-0.005949
04554	11605336	-0.022950	0.027539	-9.814376	-0.005399	-0.001770	-0.001273
04555	11605361	-0.009338	0.053039	-9.828347	-0.004740	-0.001885	0.002375
04556	11605386	-0.040629	0.071493	-9.821009	-0.002310	-0.005914	0.000556
04557	11605411	-0.025696	0.078630	-9.840261	-0.003865	0.003110	0.002337
04558	11605436	-0.005859	0.038799	-9.819735	-0.007616	-0.000001	0.000980
04559	11605461	-0.034773	0.064324	-9.813839	-0.001638	0.001007	-0.001657
04560	11605486	0.000623	0.055900	-9.823597	-0.001809	0.000620	0.001675
04561	11605511	-0.011172	0.049363	-9.835051	-0.007436	-0.001803	0.001422
04562	11605536	-0.010552	0.038892	-9.834093	-0.005344	-0.001515	-0.003198
04563	11605561	0.007199	0.023940	-9.832740	-0.007856	-0.002258	0.005525
04564	11605586	-0.000621	0.046117	-9.833664	-0.004627	0.000437	-0.002167
04565	11605611	-0.013395	0.030603	-9.818249	-0.011997	-0.001305	0.000536
04566	11605636	-0.003823	0.025910	-9.822130	-0.002412	-0.001079	-0.002432
04567	11605661	-0.012782	0.026016	-9.834552	-0.003117	-0.001092	-0.003137
04568	11605686	-0.012262	0.012380	-9.811544	0.000474	-0.001024	-0.000970
04569	11605711	-0.012500	0.040665	-9.829283	-0.003524	-0.000261	-0.003648
04570	11605736	-0.028248	0.048258	-9.835439	-0.010271	0.000925	0.001764
04571	11605761	-0.026172	0.063654	-9.821068	-0.005206	0.000297	-0.002672
04572	11605786	-0.001778	0.023294	-9.833664	-0.002921	0.000918	-0.002998
04573	11605811	-0.012256	0.022618	-9.826887	-0.004284	0.001670	-0.002226
04574	11605836	-0.017192	0.039774	-9.838838	-0.000218	0.000648	-0.000060
04575	11605861	-0.019876	0.019052	-9.819651	-0.002055	0.002034	-0.001648
04576	11605886	-0.004690	0.020796	-9.826446	-0.003408	-0.004065	-0.003345
04577	11605911	-0.016780	0.047048	-9.844123	-0.008558	-0.000794	-0.000943
04578	11605936	-0.018544	0.064249	-9.822552	-0.008315	-0.000273	0.000468
04579	11605961	-0.006396	0.037017	-9.801996	-0.005703	0.002171	-0.000548
04580	11605986	0.000916	0.017596	-9.798670	-0.004405	-0.000787	-0.001593
04581	11606011	-0.030232	0.041184	-9.814346	-0.003280	-0.001933	-0.003652
04582	11606036	-0.037039	0.048649	-9.815741	-0.001445	-0.002728	0.001918
04583	11606061	-0.042419	0.063733	-9.811401	-0.003526	-0.001663	0.004299
04584	11606086	-0.011355	0.029782	-9.829288	-0.006682	0.005060	0.002034
04585	11606111	-0.015401	0.048783	-9.835988	-0.001787	0.001520	-0.002357
04586	11606136	-0.017319	0.044883	-9.829259	-0.005376	-0.000151	0.001298
04587	11606161	0.009174	0.025257	-9.826994	-0.003001	0.003895	0.002466
04588	11606186	-0.018652	0.028880	-9.809118	-0.003220	0.004335	-0.003044
04589	11606211	-0.008891	0.052587	-9.829307	-0.004032	-0.004524	-0.001293
04590	11606236	-0.003540	0.075000	-9.801536	-0.005583	0.002684	0.001058
04591	11606261	-0.022799	0.061362	-9.824932	-0.004074	-0.000976	-0.001982
04592	11606286	-0.007911	0.053461	-9.822123	-0.006627	0.000922	-0.001390
04593	11606311	0.003319	0.029820	-9.815942	-0.010426	0.003827	0.000432
04594	11606336	0.006325	0.059590	-9.838973	-0.008120	-0.004342	0.001474
04595	11606361	0.015388	0.049983	-9.827513	-0.002618	-0.004895	-0.003035
04596	11606386	-0.007106	0.055266	-9.814458	-0.006832	-0.002962	-0.002694
04597	11606411	0.014195	0.038079	-9.825587	-0.005236	-0.000611	-0.002111
04598	11606436	-0.002991	0.036949	-9.820698	-0.009735	-0.000432	-0.003242
04599	11606461	-0.034095	0.049678	-9.815275	-0.003779	0.002138	0.000469
04600	11606486	-0.016838	0.038128	-9.825903	-0.002873	-0.002638	-0.002183
04601	11606511	-0.009023	0.029395	-9.835535	-0.002113	-0.002360	-0.001927
04602	11606536	-0.002702	0.023374	-9.834599	-0.007872	-0.000329	-0.002548
04603	11606561	-0.032433	0.069790	-9.824400	-0.007215	-0.000571	0.002262
04604	11606586	-0.031286	0.044819	-9.810495	-0.000596	-0.003625	-0.000331
04605	11606611	-0.033730	0.049086	-9.805213	-0.007118	0.000268	-0.000359
04606	11606636	-0.046181	0.048895	-9.801321	-0.007603	-0.005046	-0.003847
04607	11606661	-0.055309	0.053361	-9.796005	-0.000842	-0.003955	-0.001487
04608	11606686	-0.040520	0.046873	-9.789847	-0.006086	-0.006369	-0.000657
04609	11606711	-0.039643	0.046187	-9.840650	-0.004096	-0.000001	-0.000305
04610	11606736	-0.039644	0.031655	-9.814291	-0.008702	-0.002474	-0.001402
04611	11606761	-0.037757	0.041335	-9.834433	-0.001174	-0.003774	-0.003219
04612	11606786	-0.023445	0.040039	-9.831625	-0.000589	-0.000082	-0.003652
04613	11606811	-0.031526	0.032211	-9.820080	-0.000747	-0.001240	-0.003788
04614	11606836	-0.030379	0.035666	-9.857959	-0.005503	-0.002347	0.001094
04615	11606861	-0.024425	0.033364	-9.820120	-0.011043	-0.003363	-0.001204
04616	11606886	-0.030394	0.042684	-9.790850	-0.004688	-0.000027	-0.004154
04617	11606911	-0.034512	0.022258	-9.851694	-0.005129	-0.001961	-0.000188
04618	11606936	-0.051638	0.043034	-9.830050	-0.005075	-0.003967	-0.002438
04619	11606961	-0.022561	0.032477	-9.799522	-0.002360	-0.000495	-0.001535
04620	11606986	-0.011305	0.023216	-9.836948	-0.001960	-0.003326	-0.002062
04621	11607011	-0.013094	0.045316	-9.822093	-0.007464	-0.003101	-0.001664
04622	11607036	-0.026257	0.038746	-9.832101	-0.010532	-0.001016	0.000344
04623	11607061	-0.022404	0.033011	-9.833068	-0.003457	-0.000188	0.000076
04624	11607086	-0.022451	0.039544	-9.831148	-0.000349	0.001042	0.002059
04625	11607111	-0.011377	0.017767	-9.820181	-0.003825	-0.005040	-0.002198
04626	11607136	-0.021006	0.043029	-9.838343	-0.000985	0.003095	0.001685
04627	11607161	-0.018773	0.049220	-9.832137	-0.005995	-0.000881	-0.001018
04628	11607186	-0.033291	0.064507	-9.821992	-0.005946	0.004035	0.000814
04629	11607211	-0.010153	0.027471	-9.799576	-0.005314	-0.002278	0.000900
04630	11607236	-0.004067	0.046747	-9.815907	-0.005066	0.002569	0.002724
04631	11607261	0.005571	0.040808	-9.822665	-0.008583	-0.000085	-0.002226
04632	11607286	-0.015170	0.054435	-9.802908	-0.003108	0.000976	-0.004025
04633	11607311	0.000515	0.021282	-9.821677	-0.005479	-0.003526	-0.004946
04634	11607336	-0.021434	0.030541	-9.825402	-0.003642	0.001681	-0.000364
04635	11607361	-0.028442	0.047296	-9.807156	-0.009225	-0.001894	0.002323
04636	11607386	-0.003744	0.017270	-9.810633	-0.007862	-0.000526	-0.001782
04637	11607411	-0.035587	0.053027	-9.817666	-0.004505	0.000371	-0.003767
04638	11607436	-0.037816	0.054004	-9.851216	-0.005178	-0.004943	-0.004755
04639	11607461	-0.030213	0.031118	-9.803795	-0.008459	-0.004345	-0.003202
04640	11607486	-0.035197	0.057274	-9.812401	-0.007504	0.000720	0.001825
04641	11607511	-0.015274	0.027217	-9.821594	-0.001541	-0.002557	-0.005203
04642	11607536	0.014738	0.034930	-9.835654	-0.003716	-0.000325	-0.003451
04643	11607561	-0.014053	0.037526	-9.815383	-0.000693	-0.007194	-0.004648
04644	11607586	-0.023916	0.031526	-9.833545	-0.000048	-0.008845	-0.000367
04645	11607611	-0.014000	0.041018	-9.821134	-0.007936	-0.002393	-0.000438
04646	11607636	-0.006415	0.037821	-9.820681	-0.007130	-0.005423	0.000696
04647	11607661	-0.025600	0.047326	-9.811979	-0.003156	-0.003409	0.000893
04648	11607686	-0.006342	0.048633	-9.846574	-0.005151	-0.001444	-0.000952
04649	11607711	-0.022821	0.058400	-9.818213	-0.004819	-0.001630	0.000326
04650	11607736	-0.032180	0.049400	-9.829670	-0.000735	-0.003371	-0.001040
04651	11607761	-0.035439	0.051804	-9.833485	-0.001764	0.003006	-0.002284
04652	11607786	-0.032782	0.062107	-9.819603	-0.004327	0.003423	0.000802
04653	11607811	-0.026115	0.052591	-9.812927	-0.005171	-0.000803	-0.001588
04654	11607836	0.000490	0.058226	-9.815936	-0.006954	-0.005285	-0.001676
04655	11607861	-0.016005	0.054047	-9.835021	-0.006682	-0.003466	0.001541
04656	11607886	-0.021710	0.040378	-9.812943	-0.008349	-0.003703	-0.002368
04657	11607911	-0.011324	0.054899	-9.826408	-0.006451	-0.002624	0.000648
04658	11607936	-0.028906	0.051843	-9.824894	-0.006999	-0.005279	0.003199
04659	11607961	-0.028071	0.055324	-9.804766	-0.009449	-0.000866	0.000660
04660	11607986	-0.031859	0.049035	-9.804267	-0.000885	-0.004405	0.001711
04661	11608011	-0.035808	0.059759	-9.794176	-0.004879	-0.000092	-0.005436
04662	11608036	-0.041015	0.034914	-9.822905	0.003490	0.001167	0.000133
04663	11608061	-0.036003	0.047644	-9.809500	-0.001566	0.002621	-0.004148
04664	11608086	-0.026686	0.028177	-9.825854	-0.011006	-0.002448	-0.000301
04665	11608111	-0.019503	0.012751	-9.810072	-0.002268	-0.005586	0.000107
04666	11608136	-0.009981	0.024320	-9.814442	-0.001021	-0.000139	0.000514
04667	11608161	-0.002344	0.020729	-9.817344	-0.006980	-0.001992	0.000711
04668	11608186	-0.027140	0.032975	-9.833049	-0.008799	-0.001308	-0.000112
04669	11608211	-0.041872	0.019742	-9.816181	-0.005646	-0.000234	-0.005174
04670	11608236	-0.029321	0.008359	-9.806180	-0.005963	0.001891	-0.006193
04671	11608261	-0.010232	0.014305	-9.840309	-0.005087	-0.001119	0.000843
04672	11608286	-0.027361	0.043203	-9.818189	-0.008307	-0.000589	0.000148
04673	11608311	-0.029560	0.032487	-9.830157	-0.010306	-0.002503	-0.001907
04674	11608336	-0.042000	0.034108	-9.826266	-0.005911	-0.003259	0.002183
04675	11608361	-0.010703	0.044329	-9.818274	-0.002725	0.001055	-0.000946
04676	11608386	-0.045817	0.027262	-9.812813	-0.010906	-0.001873	-0.003566
04677	11608411	-0.040450	0.031307	-9.829622	-0.003245	0.001369	-0.000560
04678	11608436	-0.017727	0.041572	-9.831184	-0.003774	-0.000262	-0.002365
04679	11608461	-0.006896	0.053235	-9.836028	-0.006866	0.000268	-0.002609
04680	11608486	-0.043055	0.065441	-9.798466	-0.004703	-0.003712	-0.005257
04681	11608511	-0.015004	0.044399	-9.819685	-0.016011	-0.000286	-0.004123
04682	11608536	-0.032178	0.079742	-9.822486	-0.008380	-0.006667	-0.001228
04683	11608561	-0.003429	0.033136	-9.824544	-0.005427	-0.002746	-0.001608
04684	11608586	-0.002004	0.058269	-9.787165	-0.011180	0.001423	-0.001183
04685	11608611	-0.028488	0.063236	-9.831601	-0.001012	-0.000130	0.003085
04686	11608636	0.000282	0.067817	-9.796280	-0.003110	-0.000888	0.000712
04687	11608661	-0.013832	0.056902	-9.805799	-0.002334	-0.003530	-0.003220
04688	11608686	-0.030926	0.067962	-9.829676	-0.004402	0.001344	-0.002412
04689	11608711	0.000139	0.046636	-9.800111	-0.010021	0.001055	0.000352
04690	11608736	-0.001062	0.031465	-9.805375	-0.007035	0.001422	-0.003824
04691	11608761	-0.002788	0.056210	-9.812080	-0.004229	-0.000402	-0.004546
04692	11608786	0.011903	0.033863	-9.829408	-0.005633	0.001708	-0.002930
04693	11608811	-0.017564	0.061803	-9.820634	-0.000952	0.001077	-0.006402
04694	11608836	-0.014919	0.049246	-9.837425	-0.000751	0.003614	0.000662
04695	11608861	-0.016114	0.056211	-9.828311	-0.000381	-0.004265	0.001459
04696	11608886	-0.010093	0.023944	-9.791416	-0.001229	0.002576	0.003093
04697	11608911	-0.019465	0.043754	-9.787071	-0.006036	0.000347	-0.002351
04698	11608936	-0.003371	0.001270	-9.825009	0.000224	0.004977	-0.003372
04699	11608961	-0.006553	0.019801	-9.823078	-0.005369	0.001852	0.000156
04700	11608986	-0.032116	0.040358	-9.819124	-0.009455	-0.002739	0.002193
04701	11609011	-0.032016	0.025941	-9.807138	-0.014159	-0.002055	-0.000291
04702	11609036	-0.031032	0.028460	-9.821999	-0.004812	-0.003959	-0.000390
04703	11609061	-0.047218	0.042783	-9.839654	-0.005291	0.001006	-0.003441
04704	11609086	-0.025802	0.033196	-9.811002	-0.008380	0.003469	-0.004253
04705	11609111	-0.016985	0.020236	-9.828293	-0.007054	0.002535	0.000805
04706	11609136	-0.010067	-0.000575	-9.829283	-0.005226	0.001204	0.000530
04707	11609161	-0.040878	0.027151	-9.836329	-0.004417	-0.000533	-0.003064
04708	11609186	-0.023925	0.027391	-9.807658	-0.004749	-0.002150	-0.003715
04709	11609211	-0.017444	0.040206	-9.800988	-0.005244	-0.000614	-0.004090
04710	11609236	-0.006601	0.020574	-9.816366	-0.000903	-0.001813	0.001980
04711	11609261	-0.038927	0.023681	-9.825790	-0.004372	0.004645	-0.001626
04712	11609286	-0.000549	0.028696	-9.813046	-0.003731	0.000715	0.002453
04713	11609311	-0.031644	0.044727	-9.830636	-0.004120	-0.003418	0.002111
04714	11609336	-0.019638	0.043923	-9.829730	-0.006321	-0.000431	0.000396
04715	11609361	-0.033994	0.044152	-9.827739	-0.003760	0.001156	-0.002159
04716	11609386	-0.016575	0.055147	-9.813927	-0.006366	0.000796	-0.000750
04717	11609411	-0.017274	0.041524	-9.822075	-0.007899	0.000699	-0.002673
04718	11609436	-0.021242	0.054411	-9.833084	-0.008389	-0.002144	-0.000565
04719	11609461	-0.036452	0.048349	-9.825325	-0.000872	-0.000659	0.001799
04720	11609486	-0.020931	0.063289	-9.821103	-0.011434	-0.003041	-0.001526
04721	11609511	-0.000351	0.054771	-9.812093	-0.003418	0.002718	-0.003055
04722	11609536	-0.012917	0.067568	-9.818262	-0.004369	-0.000016	-0.003895
04723	11609561	-0.035079	0.044396	-9.808562	-0.009827	-0.001271	-0.001006
04724	11609586	-0.020057	0.070298	-9.815834	-0.007305	0.002202	-0.000095
04725	11609611	-0.011217	0.039033	-9.813004	-0.007713	-0.003624	-0.002626
04726	11609636	-0.019743	0.034453	-9.799522	-0.003484	0.000651	-0.002034
04727	11609661	-0.028035	0.052474	-9.801881	-0.011830	0.001808	0.002095
04728	11609686	-0.001959	0.036230	-9.842282	-0.002290	-0.006694	0.000548
04729	11609711	0.013618	0.038323	-9.810246	-0.004265	0.000894	-0.000757
04730	11609736	-0.025679	0.051032	-9.805262	-0.002855	-0.002752	0.003587
04731	11609761	-0.022013	0.037707	-9.826838	-0.007311	-0.001745	-0.001143
04732	11609786	-0.011845	0.029792	-9.829765	-0.006601	0.001885	-0.005227
04733	11609811	-0.046876	0.041233	-9.827201	-0.007461	-0.003496	-0.003071
04734	11609836	-0.038270	0.042203	-9.826761	-0.004494	-0.002080	-0.003456
04735	11609861	0.000479	0.029623	-9.836536	-0.008464	-0.004031	-0.002426
04736	11609886	-0.035768	0.030267	-9.819090	-0.007029	-0.000446	0.000487
04737	11609911	-0.003234	0.016919	-9.818781	-0.004271	-0.001113	-0.003438
04738	11609936	-0.007521	0.024881	-9.838896	-0.014135	-0.005040	-0.003497
04739	11609961	-0.027041	0.043032	-9.806214	-0.009151	-0.006491	0.000270
04740	11609986	0.009769	0.012842	-9.823155	-0.004511	0.000960	0.000997
04741	11610011	-0.024378	0.031302	-9.821063	0.000566	0.000268	-0.000298
04742	11610036	0.014337	0.024864	-9.826064	-0.006410	-0.000380	-0.003043
04743	11610061	-0.010460	0.038555	-9.845591	-0.003245	0.001495	0.000618
04744	11610086	-0.029524	0.035339	-9.834951	-0.003614	0.000647	-0.002600
04745	11610111	-0.011708	0.044223	-9.812993	-0.003758	0.001161	-0.001241
04746	11610136	-0.013638	0.044332	-9.819221	-0.004549	-0.006546	-0.003783
04747	11610161	-0.010822	0.053259	-9.816355	-0.003757	0.001089	-0.003496
04748	11610186	-0.008712	0.060084	-9.793365	-0.003515	-0.002585	-0.002356
04749	11610211	-0.024885	0.063453	-9.808133	-0.004758	-0.005580	-0.001019
04750	11610236	-0.038637	0.071102	-9.821491	-0.006524	-0.000307	-0.000027
04751	11610261	-0.011722	0.044180	-9.809631	-0.003459	-0.000128	-0.001314
04752	11610286	-0.027256	0.081392	-9.834973	-0.004961	0.000353	-0.006373
04753	11610311	-0.019885	0.076455	-9.849387	-0.001705	0.005527	0.001340
04754	11610336	-0.048402	0.045681	-9.812808	-0.005352	-0.001073	-0.002918
04755	11610361	-0.034487	0.041575	-9.817672	-0.000294	-0.001177	-0.004022
04756	11610386	-0.045171	0.064062	-9.833431	-0.002633	0.000146	-0.000478
04757	11610411	-0.011941	0.027377	-9.825449	-0.009015	-0.004944	-0.003250
04758	11610436	-0.000474	0.014058	-9.815443	-0.004485	-0.010809	-0.002848
04759	11610461	-0.026620	0.031471	-9.831124	-0.003168	0.002909	-0.002523
04760	11610486	-0.004056	0.024493	-9.788590	-0.005193	-0.006428	-0.004038
04761	11610511	-0.012532	-0.002652	-9.819210	-0.007039	-0.002573	-0.000292
04762	11610536	-0.021548	0.036615	-9.814863	-0.008498	0.001667	0.003451
04763	11610561	-0.034068	0.046041	-9.822951	-0.006646	-0.002836	-0.002669
04764	11610586	-0.030482	0.025506	-9.816730	-0.002483	-0.000960	-0.005874
04765	11610611	-0.017291	0.033312	-9.816319	-0.004315	-0.003174	0.002775
04766	11610636	-0.039230	0.040102	-9.812843	-0.005579	0.002030	-0.001812
04767	11610661	-0.021712	0.034264	-9.791368	-0.004263	-0.003313	-0.004728
04768	11610686	-0.038468	0.026089	-9.832019	0.000486	0.002718	-0.002275
04769	11610711	-0.008985	0.017754	-9.819710	-0.002608	-0.003487	-0.008000
04770	11610736	0.001881	0.025545	-9.821213	-0.004561	-0.002025	-0.003760
