// General information: 
//  MT Manager version: 2022.0.0 
//  XDA version: 2022.0.0 build 7085 rev 119802 built on 2022-11-08
// Device information: 
//  DeviceId: 037004D1
//  ProductCode: MTi-300-2A5G4
//  Firmware Version: 1.4.1
//  Hardware Version: 2.1.0
// Device settings: 
//  Filter Profile: general(39.16)
//  Option Flags: Orientation Smoother Disabled, Position/Velocity Smoother Disabled, Continuous Zero Rotation Update Disabled, AHS Disabled, ICC Disabled
// Coordinate system: ENU
PacketCounter	SampleTimeFine	Acc_X	Acc_Y	Acc_Z	Gyr_X	Gyr_Y	Gyr_Z
24523	12104561	-9.788733	-0.103200	0.010395	-0.003774	-0.001031	-0.003915
24524	12104586	-9.830616	-0.095352	-0.010527	-0.008605	0.002113	-0.003746
24525	12104611	-9.830832	-0.073904	-0.017643	-0.009319	-0.001520	-0.000747
24526	12104636	-9.822141	-0.125672	-0.010061	-0.004746	-0.000799	-0.005636
24527	12104661	-9.857237	-0.099052	-0.009802	-0.001301	-0.004229	-0.002451
24528	12104686	-9.819839	-0.111586	-0.025347	-0.005871	-0.005786	-0.003417
24529	12104711	-9.818739	-0.094764	-0.006625	-0.002836	-0.005986	0.001262
24530	12104736	-9.846276	-0.090464	-0.029118	-0.003101	0.002673	0.001374
24531	12104761	-9.816390	-0.091387	-0.009133	-0.009976	0.000925	-0.001763
24532	12104786	-9.823793	-0.106120	-0.013871	-0.005437	-0.000738	-0.000504
24533	12104811	-9.828859	-0.106771	-0.039687	-0.003099	-0.002120	-0.002246
24534	12104836	-9.823555	-0.122134	-0.020624	-0.002891	0.001702	-0.001138
24535	12104861	-9.843737	-0.111567	-0.010912	-0.004831	0.000381	0.001492
24536	12104886	-9.827560	-0.099681	-0.033508	-0.005516	-0.000353	-0.000431
24537	12104911	-9.845341	-0.088590	-0.030563	-0.003113	0.000596	-0.000243
24538	12104936	-9.843254	-0.112040	-0.011434	-0.009601	0.003591	0.001395
24539	12104961	-9.838783	-0.095654	0.002964	-0.004536	0.001091	-0.001003
24540	12104986	-9.828787	-0.090160	-0.009117	-0.008030	0.004187	-0.003481
24541	12105011	-9.836125	-0.117909	0.002568	-0.007011	-0.003932	-0.002369
24542	12105036	-9.851933	-0.100215	-0.019947	-0.004990	-0.003056	-0.002755
24543	12105061	-9.815518	-0.116359	-0.021508	-0.004521	-0.007960	-0.003107
24544	12105086	-9.820848	-0.117090	-0.004301	0.000687	0.000153	0.001605
24545	12105111	-9.796892	-0.121391	-0.019279	0.002050	-0.001061	-0.004372
24546	12105136	-9.843276	-0.106737	-0.020016	-0.007789	0.000449	-0.002795
24547	12105161	-9.838766	-0.098036	0.004458	-0.006141	-0.002946	-0.000893
24548	12105186	-9.843540	-0.086863	-0.016163	-0.006497	-0.001593	0.000654
24549	12105211	-9.807186	-0.097269	-0.022612	-0.007375	0.001551	-0.003690
24550	12105236	-9.823052	-0.092530	-0.007125	-0.004904	-0.004099	-0.007507
24551	12105261	-9.824006	-0.082696	-0.024913	-0.002471	-0.001785	-0.003915
24552	12105286	-9.844601	-0.089158	0.004504	-0.001101	-0.004540	-0.003219
24553	12105311	-9.828848	-0.080484	-0.019151	-0.001532	0.001200	-0.002429
24554	12105336	-9.844047	-0.083020	-0.021885	-0.006711	-0.001343	-0.002801
24555	12105361	-9.844041	-0.084444	-0.017566	-0.002737	-0.003137	0.001599
24556	12105386	-9.837537	-0.081888	0.001998	-0.003155	-0.000316	-0.003776
24557	12105411	-9.781408	-0.136173	-0.028929	-0.008118	-0.001231	-0.000052
24558	12105436	-9.816569	-0.098943	-0.040233	-0.007863	-0.003231	-0.000250
24559	12105461	-9.827119	-0.099748	-0.026274	-0.001812	-0.003901	0.002933
24560	12105486	-9.844875	-0.093947	-0.016631	-0.004549	-0.000457	-0.000176
24561	12105511	-9.848280	-0.088337	-0.016114	-0.011554	-0.003357	0.003479
24562	12105536	-9.845007	-0.078694	-0.028131	-0.006263	-0.001343	-0.003578
24563	12105561	-9.833561	-0.088792	-0.009959	-0.008325	-0.001316	-0.007738
24564	12105586	-9.812635	-0.121685	-0.013943	-0.007911	0.000441	-0.002289
24565	12105611	-9.828222	-0.094284	-0.013883	-0.000188	0.001492	0.001875
24566	12105636	-9.831844	-0.115455	-0.003803	-0.002900	0.001429	-0.006330
24567	12105661	-9.801269	-0.119176	-0.010555	-0.006163	-0.004499	-0.002058
24568	12105686	-9.824866	-0.104473	0.003403	-0.005448	-0.002478	0.001283
24569	12105711	-9.832788	-0.106129	-0.022897	-0.002177	-0.002818	-0.002314
24570	12105736	-9.815902	-0.099208	0.006253	-0.000916	-0.002465	-0.002767
24571	12105761	-9.839588	-0.094720	-0.023409	-0.006427	0.002679	0.003052
24572	12105786	-9.828758	-0.122134	-0.022427	-0.005426	-0.003055	0.001989
24573	12105811	-9.815895	-0.131225	-0.007628	-0.003476	-0.004253	0.000501
24574	12105836	-9.849040	-0.110892	-0.002267	-0.001077	0.001021	-0.003061
24575	12105861	-9.863114	-0.076908	-0.029542	-0.009708	0.000744	0.001891
24576	12105886	-9.847105	-0.095115	-0.038685	-0.004275	0.000766	-0.001134
24577	12105911	-9.824067	-0.119326	-0.019106	-0.005484	-0.003582	-0.000900
24578	12105936	-9.815704	-0.114371	0.004779	-0.010288	0.000662	-0.001505
24579	12105961	-9.846270	-0.124496	-0.040093	-0.004235	-0.000653	-0.001718
24580	12105986	-9.827370	-0.114872	-0.034481	-0.004448	0.000185	-0.002295
24581	12106011	-9.838663	-0.091929	-0.024786	-0.006765	-0.001672	-0.004157
24582	12106036	-9.837836	-0.106199	-0.051623	-0.003704	-0.005168	-0.001039
24583	12106061	-9.844696	-0.100890	-0.032943	-0.004965	-0.001763	-0.001597
24584	12106086	-9.813553	-0.115154	-0.034585	-0.003594	0.003693	-0.001380
24585	12106111	-9.820197	-0.109822	-0.049335	-0.003901	-0.001231	-0.002946
24586	12106136	-9.828311	-0.084275	-0.019609	-0.005922	0.000155	-0.002675
24587	12106161	-9.816813	-0.118457	-0.037359	-0.001468	-0.002730	0.000766
24588	12106186	-9.817266	-0.090228	-0.023437	-0.005853	-0.004166	-0.001414
24589	12106211	-9.857500	-0.066326	-0.034808	-0.004911	0.000894	0.000542
24590	12106236	-9.837626	-0.097087	-0.029639	-0.010107	-0.001147	-0.004533
24591	12106261	-9.840987	-0.083494	-0.052170	-0.007915	0.002511	-0.003681
24592	12106286	-9.832666	-0.082550	-0.012383	0.000799	-0.000121	-0.005008
24593	12106311	-9.836714	-0.093203	-0.031073	-0.005256	0.001462	-0.003372
24594	12106336	-9.831161	-0.086783	-0.014699	-0.003758	-0.007758	-0.003107
24595	12106361	-9.845471	-0.077159	-0.030946	-0.005779	-0.006358	0.000437
24596	12106386	-9.827429	-0.080983	-0.014803	-0.005852	-0.004034	-0.001159
24597	12106411	-9.815645	-0.100009	-0.034036	-0.004877	-0.000471	-0.000691
24598	12106436	-9.822510	-0.088397	-0.025868	-0.007382	-0.000325	-0.004019
24599	12106461	-9.825693	-0.109075	-0.009553	-0.006409	0.001308	-0.003113
24600	12106486	-9.816263	-0.104816	-0.001486	-0.004426	0.001471	-0.004405
24601	12106511	-9.814244	-0.094208	-0.041243	-0.000909	-0.002337	-0.000846
24602	12106536	-9.832607	-0.111517	-0.042574	-0.002152	-0.001781	-0.004493
24603	12106561	-9.834223	-0.101747	-0.030078	-0.001346	-0.003122	-0.004436
24604	12106586	-9.808397	-0.110906	-0.028772	-0.000510	-0.002649	0.000754
24605	12106611	-9.833246	-0.103606	-0.030130	-0.005966	-0.000294	-0.001781
24606	12106636	-9.853590	-0.093484	0.004043	-0.003485	-0.002059	-0.002177
24607	12106661	-9.854275	-0.068080	-0.015198	-0.007585	0.004259	-0.004119
24608	12106686	-9.836740	-0.098145	-0.016220	-0.003432	0.000532	-0.000240
24609	12106711	-9.823924	-0.098107	-0.009074	-0.005774	0.000033	0.001304
24610	12106736	-9.836435	-0.082968	-0.018680	-0.006926	0.003821	-0.001885
24611	12106761	-9.816426	-0.109869	-0.042663	-0.008911	-0.000416	-0.001711
24612	12106786	-9.810267	-0.119187	-0.018219	-0.004382	-0.002079	-0.003719
24613	12106811	-9.833288	-0.115943	0.001070	-0.009778	-0.001198	-0.001195
24614	12106836	-9.815882	-0.128811	-0.014856	-0.006250	0.000276	-0.003631
24615	12106861	-9.824942	-0.116728	-0.037327	-0.000763	-0.003314	-0.004308
24616	12106886	-9.815097	-0.115962	-0.014852	-0.004578	-0.001822	-0.002496
24617	12106911	-9.812856	-0.105074	-0.012481	-0.004253	-0.000072	-0.001590
24618	12106936	-9.829182	-0.087976	-0.026335	-0.010368	0.001177	-0.002210
24619	12106961	-9.803700	-0.118828	-0.002484	-0.002325	-0.000094	-0.000511
24620	12106986	-9.836256	-0.094701	-0.024385	-0.006326	0.003128	-0.001502
24621	12107011	-9.851135	-0.091243	-0.011806	-0.005832	0.000104	0.003618
24622	12107036	-9.850372	-0.102762	-0.034348	-0.003618	-0.001338	0.004429
24623	12107061	-9.858896	-0.108597	-0.029960	-0.002833	-0.001843	0.003721
24624	12107086	-9.838909	-0.106015	-0.034834	-0.004551	-0.004862	-0.002511
24625	12107111	-9.833169	-0.142340	-0.041183	-0.004058	0.004399	-0.000411
24626	12107136	-9.834451	-0.117709	-0.037776	-0.003339	-0.000116	0.001615
24627	12107161	-9.820936	-0.101237	-0.022965	-0.007221	-0.003488	-0.005065
24628	12107186	-9.804851	-0.125988	-0.033139	-0.010286	0.000532	-0.001568
24629	12107211	-9.825778	-0.099975	-0.013824	-0.005071	-0.002410	-0.001219
24630	12107236	-9.833741	-0.112019	-0.008497	-0.003697	-0.003293	-0.000903
24631	12107261	-9.835279	-0.122329	-0.046837	-0.005981	-0.003710	0.002308
24632	12107286	-9.833944	-0.120087	-0.039141	-0.003643	-0.007358	-0.002013
24633	12107311	-9.854412	-0.079952	-0.045315	-0.007188	-0.004520	-0.003588
24634	12107336	-9.860516	-0.097890	-0.022298	-0.003710	-0.000511	0.000657
24635	12107361	-9.820807	-0.111652	-0.022017	-0.002924	-0.001273	0.000197
24636	12107386	-9.803873	-0.086504	-0.039327	-0.005229	-0.003707	-0.002699
24637	12107411	-9.825307	-0.105320	-0.001842	-0.005005	-0.004405	0.001019
24638	12107436	-9.847087	-0.078657	0.002065	-0.010645	-0.002119	-0.000110
24639	12107461	-9.835476	-0.096572	0.006814	-0.002621	-0.000811	-0.000760
24640	12107486	-9.845334	-0.097846	-0.012255	-0.004396	-0.003432	0.000511
24641	12107511	-9.847795	-0.085339	-0.024262	-0.003298	-0.003792	0.000124
24642	12107536	-9.833288	-0.106637	-0.017660	-0.006618	0.000149	0.001043
24643	12107561	-9.840785	-0.093990	0.013003	-0.006312	0.002213	-0.005548
24644	12107586	-9.848624	-0.093357	-0.029092	0.002624	0.001667	0.000323
24645	12107611	-9.817415	-0.108468	-0.039318	-0.002611	-0.001132	-0.000003
24646	12107636	-9.849972	-0.114719	0.001094	0.000764	0.001571	-0.001845
24647	12107661	-9.805709	-0.141897	-0.016815	-0.003070	-0.000758	0.001349
24648	12107686	-9.825212	-0.105590	-0.015769	-0.003849	-0.000380	0.000714
24649	12107711	-9.826660	-0.133844	-0.032553	-0.005564	-0.000927	0.000650
24650	12107736	-9.821004	-0.101306	-0.011972	-0.006053	0.000811	0.002080
24651	12107761	-9.821087	-0.101094	0.001414	-0.000909	0.001867	0.000530
24652	12107786	-9.826917	-0.116373	-0.026768	-0.008769	-0.002794	0.000203
24653	12107811	-9.836881	-0.088782	-0.011921	-0.001164	-0.000474	-0.004420
24654	12107836	-9.854137	-0.096373	-0.055382	0.000802	-0.002049	-0.002576
24655	12107861	-9.852552	-0.082944	-0.031567	-0.005668	0.006758	-0.001161
24656	12107886	-9.800081	-0.127407	-0.031203	-0.003102	-0.004186	-0.002772
24657	12107911	-9.830576	-0.119425	-0.045947	0.001660	-0.002751	-0.001484
24658	12107936	-9.824896	-0.125883	-0.026778	-0.003758	-0.001357	-0.001150
24659	12107961	-9.845267	-0.094774	-0.029552	-0.003789	-0.002715	-0.004487
24660	12107986	-9.804255	-0.139921	-0.023544	-0.010096	-0.001341	-0.001201
24661	12108011	-9.850872	-0.069782	-0.021453	-0.008091	0.002190	0.000358
24662	12108036	-9.849346	-0.089109	0.001609	-0.005081	-0.001960	-0.000954
24663	12108061	-9.825230	-0.099806	-0.024346	-0.004105	-0.004263	0.001787
24664	12108086	-9.818260	-0.131274	-0.010056	-0.002359	0.000735	-0.002934
24665	12108111	-9.836173	-0.103814	-0.018133	-0.007685	-0.000516	0.001173
24666	12108136	-9.825222	-0.101749	-0.022443	-0.005218	-0.004095	-0.003083
24667	12108161	-9.803343	-0.104898	-0.012095	-0.002570	0.001970	0.000723
24668	12108186	-9.792942	-0.096698	-0.015060	-0.004707	0.004509	-0.001758
24669	12108211	-9.827948	-0.107773	-0.032116	-0.003852	0.003880	0.001380
24670	12108236	-9.817926	-0.112525	-0.025388	-0.008036	-0.001949	-0.003065
24671	12108261	-9.836692	-0.099516	-0.020990	-0.004479	-0.000653	-0.000502
24672	12108286	-9.814948	-0.117596	-0.033055	-0.004935	-0.002542	-0.001541
24673	12108311	-9.817849	-0.096953	0.008128	-0.003585	0.001033	-0.005819
24674	12108336	-9.856860	-0.090000	-0.013720	-0.005493	0.000413	-0.007865
24675	12108361	-9.808085	-0.104549	-0.015359	-0.003649	-0.003237	-0.006416
24676	12108386	-9.833900	-0.107520	0.005834	-0.003816	-0.001682	-0.004102
24677	12108411	-9.814946	-0.119538	-0.032188	-0.008753	0.002621	-0.004452
24678	12108436	-9.836710	-0.103934	-0.009069	-0.010285	0.002933	0.001648
24679	12108461	-9.839867	-0.108491	-0.029607	-0.001927	0.001256	-0.004792
24680	12108486	-9.814380	-0.111703	0.015823	-0.006793	-0.004834	-0.002833
24681	12108511	-9.830258	-0.090312	-0.002333	-0.006223	-0.000696	-0.006528
24682	12108536	-9.840191	-0.121768	-0.025700	-0.006150	-0.004750	0.000893
24683	12108561	-9.852439	-0.090529	-0.034861	-0.006437	0.002277	-0.002725
24684	12108586	-9.834951	-0.128540	-0.013333	-0.000536	0.000194	-0.000572
24685	12108611	-9.826726	-0.095553	-0.022470	-0.004524	-0.001298	0.001162
24686	12108636	-9.849149	-0.129527	-0.025225	-0.005548	-0.001518	-0.001724
24687	12108661	-9.827203	-0.090656	-0.034976	-0.004153	0.001159	-0.001843
24688	12108686	-9.818972	-0.137947	-0.035464	-0.005823	-0.000612	0.001997
24689	12108711	-9.841556	-0.126504	-0.028689	0.000726	0.002728	-0.000694
24690	12108736	-9.823805	-0.098766	-0.025892	-0.002915	0.002864	0.001891
24691	12108761	-9.825534	-0.105276	-0.040667	-0.001884	-0.003970	-0.001551
24692	12108786	-9.809208	-0.113509	-0.046519	-0.004777	-0.001632	-0.002110
24693	12108811	-9.816265	-0.121215	-0.044510	-0.003152	-0.004511	-0.001360
24694	12108836	-9.836859	-0.114902	-0.039663	-0.002852	-0.003603	-0.000843
24695	12108861	-9.833706	-0.100142	-0.040684	0.001642	0.002097	-0.002684
24696	12108886	-9.850317	-0.102134	-0.044918	-0.003512	-0.001021	-0.000571
24697	12108911	-9.835357	-0.084054	-0.038321	0.000826	0.003704	-0.001900
24698	12108936	-9.838247	-0.088109	-0.022515	-0.008146	0.006327	0.001854
24699	12108961	-9.830544	-0.102033	-0.008096	-0.001477	0.001264	-0.003964
24700	12108986	-9.846151	-0.079192	0.005922	-0.002602	-0.001591	-0.001985
24701	12109011	-9.837948	-0.088185	0.005342	-0.000492	0.002114	-0.009218
24702	12109036	-9.864879	-0.072427	0.013688	-0.006138	-0.003077	-0.003196
24703	12109061	-9.839272	-0.095124	0.004362	-0.006282	0.004104	0.003119
24704	12109086	-9.806466	-0.123046	-0.009642	-0.003478	-0.000121	-0.002106
24705	12109111	-9.819637	-0.101498	-0.001476	-0.008060	0.003223	-0.003038
24706	12109136	-9.847861	-0.082112	-0.020953	-0.004174	0.001739	-0.000037
24707	12109161	-9.846300	-0.099403	-0.007545	-0.007321	0.000131	-0.001968
24708	12109186	-9.811306	-0.093640	0.022483	-0.009871	-0.000095	0.001691
24709	12109211	-9.830861	-0.089158	0.017284	-0.010695	0.001429	-0.003429
24710	12109236	-9.824478	-0.105161	0.018241	-0.004700	0.000122	0.000460
24711	12109261	-9.840660	-0.098561	0.003964	-0.002624	-0.001016	-0.003585
24712	12109286	-9.837383	-0.122366	-0.016670	-0.009613	-0.000420	-0.000875
24713	12109311	-9.850619	-0.103505	0.006416	-0.008819	-0.001645	-0.005880
24714	12109336	-9.837381	-0.093237	0.001564	-0.008394	-0.002861	-0.004734
24715	12109361	-9.820091	-0.107254	0.007206	-0.005917	-0.001770	0.001161
24716	12109386	-9.833061	-0.085256	-0.020463	-0.009201	-0.003199	0.000076
24717	12109411	-9.827244	-0.096652	-0.013376	-0.002436	-0.000484	0.000131
24718	12109436	-9.809984	-0.130158	-0.040734	-0.004429	-0.002003	0.003916
24719	12109461	-9.808661	-0.139668	-0.004367	-0.004400	0.001296	0.005023
24720	12109486	-9.837686	-0.099717	-0.014331	-0.003324	0.001036	-0.004539
24721	12109511	-9.816034	-0.122737	-0.002400	-0.009170	-0.002153	0.002450
24722	12109536	-9.839952	-0.099410	-0.032458	-0.005209	-0.000156	-0.001518
24723	12109561	-9.824639	-0.113686	-0.015768	-0.002679	-0.001140	-0.001535
24724	12109586	-9.828377	-0.109634	-0.035954	-0.003275	0.001694	-0.001843
24725	12109611	-9.838918	-0.103098	-0.039783	-0.000979	0.007868	-0.005591
24726	12109636	-9.824543	-0.116459	-0.024423	-0.006150	-0.000691	-0.003067
24727	12109661	-9.824059	-0.113949	-0.031544	-0.003289	-0.004584	-0.005725
24728	12109686	-9.837871	-0.082029	-0.020040	-0.003783	-0.000711	-0.004420
24729	12109711	-9.825105	-0.097000	-0.051767	-0.002621	0.001189	0.000013
24730	12109736	-9.811390	-0.097127	-0.034989	-0.010060	-0.002505	-0.002038
24731	12109761	-9.816681	-0.089482	-0.044115	-0.004122	-0.000203	-0.004287
24732	12109786	-9.833277	-0.096824	-0.039255	-0.007011	0.000402	-0.000367
24733	12109811	-9.822249	-0.098466	-0.045934	-0.006658	-0.004567	0.001469
24734	12109836	-9.843177	-0.098633	-0.051135	-0.011688	-0.003749	0.000209
24735	12109861	-9.837381	-0.105272	-0.052590	-0.003439	-0.001720	-0.004803
24736	12109886	-9.818530	-0.092316	-0.045544	-0.006405	-0.000530	-0.002487
24737	12109911	-9.836364	-0.118240	-0.036365	-0.002690	0.001419	-0.000817
24738	12109936	-9.854148	-0.100819	-0.045810	-0.005980	-0.002073	-0.003323
24739	12109961	-9.825951	-0.110001	-0.040696	-0.010031	-0.001173	-0.000298
24740	12109986	-9.839040	-0.095534	-0.035429	-0.005020	0.004543	-0.000727
24741	12110011	-9.820514	-0.125137	-0.044073	-0.007081	-0.000030	-0.006706
24742	12110036	-9.832679	-0.120508	-0.012390	-0.015524	0.000218	-0.002901
24743	12110061	-9.801342	-0.116859	-0.002025	-0.006869	0.002514	0.003500
24744	12110086	-9.833924	-0.102245	-0.001351	-0.004032	-0.001076	-0.007236
24745	12110111	-9.825115	-0.117645	-0.007651	-0.007218	0.002748	-0.004770
24746	12110136	-9.847246	-0.107721	0.008299	-0.006866	-0.000410	-0.005238
24747	12110161	-9.817732	-0.129126	-0.023453	-0.006618	-0.002073	-0.000180
24748	12110186	-9.829138	-0.094255	-0.020561	-0.006843	0.000818	-0.004713
24749	12110211	-9.820412	-0.119681	0.005765	-0.002578	-0.000332	-0.005123
24750	12110236	-9.847520	-0.107219	-0.026701	-0.009319	0.000061	-0.005929
24751	12110261	-9.821675	-0.122236	-0.014847	-0.002004	-0.000066	-0.003584
24752	12110286	-9.837240	-0.095333	-0.018133	-0.008892	0.001173	-0.001758
24753	12110311	-9.830348	-0.109374	-0.025834	-0.006820	0.000235	-0.004596
24754	12110336	-9.812813	-0.111834	-0.006755	-0.003931	0.001967	-0.004272
24755	12110361	-9.819955	-0.107433	-0.015309	-0.007923	-0.001194	-0.000553
24756	12110386	-9.835999	-0.078236	-0.022422	-0.003143	-0.001062	-0.007235
24757	12110411	-9.826968	-0.121463	-0.008050	-0.004250	-0.004302	-0.004174
24758	12110436	-9.814268	-0.102567	-0.020609	-0.004245	-0.002097	-0.000705
24759	12110461	-9.831421	-0.104818	-0.015674	0.001849	-0.004652	-0.003998
24760	12110486	-9.830783	-0.099026	-0.053613	-0.003336	-0.000806	-0.006536
24761	12110511	-9.837673	-0.102565	-0.008997	-0.002667	-0.001626	-0.003777
24762	12110536	-9.843427	-0.061366	-0.010399	-0.007850	-0.001590	-0.003505
24763	12110561	-9.813833	-0.104631	-0.011070	-0.010051	0.001413	-0.002462
24764	12110586	-9.845752	-0.072516	0.003049	-0.002062	-0.002328	-0.002690
24765	12110611	-9.824835	-0.097105	-0.018669	-0.008282	-0.000049	-0.005238
24766	12110636	-9.834438	-0.083225	-0.033011	-0.005810	0.000772	-0.002411
24767	12110661	-9.831381	-0.096364	-0.039239	-0.005765	-0.000712	-0.002997
24768	12110686	-9.827399	-0.124228	-0.009065	-0.006168	0.000128	0.000218
24769	12110711	-9.820539	-0.099944	-0.012946	-0.003405	0.001654	-0.001901
24770	12110736	-9.824162	-0.111729	-0.019155	-0.001796	-0.000574	-0.000255
24771	12110761	-9.833259	-0.105590	-0.023860	-0.000718	-0.002432	-0.002438
24772	12110786	-9.831751	-0.121534	-0.004717	-0.002013	0.000325	-0.000246
24773	12110811	-9.857492	-0.109712	-0.025697	-0.001334	0.000784	-0.004734
24774	12110836	-9.858399	-0.085835	-0.002201	-0.001928	-0.000182	0.001037
24775	12110861	-9.848679	-0.101832	-0.003191	-0.003940	-0.003581	-0.000390
24776	12110886	-9.852558	-0.094202	-0.007042	-0.000425	0.001074	0.000846
24777	12110911	-9.834123	-0.086458	0.000082	-0.004318	-0.001451	0.003091
24778	12110936	-9.840232	-0.117979	-0.026692	-0.006212	-0.002715	-0.001146
24779	12110961	-9.821850	-0.114801	-0.001413	-0.001577	0.000986	0.000143
24780	12110986	-9.823757	-0.110386	-0.010985	0.003146	-0.002873	0.000818
24781	12111011	-9.803610	-0.112756	-0.029299	-0.000124	-0.001070	-0.003463
24782	12111036	-9.834135	-0.123068	-0.001374	-0.004861	0.001051	-0.002031
24783	12111061	-9.819935	-0.113815	-0.006268	0.003871	0.002363	-0.004868
24784	12111086	-9.827161	-0.098398	-0.022952	-0.003690	-0.001311	0.000840
24785	12111111	-9.819491	-0.107452	-0.010985	0.002162	-0.003849	0.004019
24786	12111136	-9.835625	-0.103655	-0.029600	-0.003785	-0.002222	0.000837
24787	12111161	-9.838557	-0.098468	-0.029102	0.002058	-0.003025	-0.001492
24788	12111186	-9.826941	-0.113513	-0.028144	-0.003700	-0.007133	0.000170
24789	12111211	-9.867752	-0.094302	-0.013629	-0.002733	-0.000842	0.002836
24790	12111236	-9.817237	-0.130533	-0.023977	-0.006242	0.000580	0.001751
24791	12111261	-9.855103	-0.110134	-0.026597	-0.002505	-0.004335	-0.001095
24792	12111286	-9.843403	-0.083548	-0.045928	-0.001648	0.003244	-0.000486
24793	12111311	-9.840195	-0.080495	-0.030047	0.002356	-0.004578	-0.004321
24794	12111336	-9.833108	-0.122353	-0.015753	-0.001247	0.000213	-0.003010
24795	12111361	-9.845585	-0.104106	-0.036793	-0.003524	0.001860	0.002143
24796	12111386	-9.841329	-0.102660	-0.034868	-0.003545	0.000173	-0.000878
24797	12111411	-9.812874	-0.132274	-0.031079	-0.001043	-0.006048	0.000998
24798	12111436	-9.820848	-0.097572	-0.044985	-0.000811	-0.005794	-0.003870
24799	12111461	-9.804022	-0.114493	-0.035984	-0.001805	-0.002180	0.001535
24800	12111486	-9.835714	-0.088672	-0.045407	0.001664	-0.002645	0.000308
24801	12111511	-9.840016	-0.109893	0.000102	-0.001048	-0.000049	-0.003648
24802	12111536	-9.845572	-0.097762	-0.051595	-0.001377	-0.002123	-0.005263
24803	12111561	-9.817785	-0.115576	-0.042185	-0.001507	0.000338	-0.002041
24804	12111586	-9.826267	-0.092164	-0.026804	-0.000741	0.000477	-0.002813
24805	12111611	-9.839648	-0.097347	-0.008530	-0.001234	-0.004111	-0.000015
24806	12111636	-9.825587	-0.114149	-0.015315	-0.002582	0.000064	0.000970
24807	12111661	-9.821254	-0.084880	-0.004260	-0.007422	-0.002803	-0.000629
24808	12111686	-9.832925	-0.091710	-0.031142	-0.002585	0.004521	-0.000349
24809	12111711	-9.855330	-0.086212	-0.037234	-0.000705	0.001647	-0.000493
24810	12111736	-9.842973	-0.094552	-0.017128	-0.003539	0.001317	-0.008056
24811	12111761	-9.830020	-0.098016	-0.024854	-0.007288	0.000614	-0.005676
24812	12111786	-9.834348	-0.100142	-0.011847	-0.002250	-0.004719	-0.004375
24813	12111811	-9.840089	-0.099231	-0.009983	0.001025	-0.000522	-0.000766
24814	12111836	-9.842634	-0.089920	-0.002296	-0.000906	0.000028	0.001672
24815	12111861	-9.821063	-0.103944	0.002455	-0.002047	-0.002900	-0.001420
24816	12111886	-9.832579	-0.099914	0.008251	-0.005557	-0.001092	-0.001650
24817	12111911	-9.826785	-0.090796	-0.023485	-0.003354	0.002436	-0.000742
24818	12111936	-9.820658	-0.125885	-0.019661	-0.002596	0.002779	0.000475
24819	12111961	-9.853435	-0.087681	-0.032882	-0.001961	-0.001544	-0.002307
24820	12111986	-9.846258	-0.105627	-0.001771	-0.005534	-0.001733	-0.000311
24821	12112011	-9.810776	-0.117305	-0.017321	-0.001667	0.001429	-0.002295
24822	12112036	-9.845686	-0.105842	-0.016617	-0.007628	-0.000349	-0.000805
24823	12112061	-9.845014	-0.087939	-0.007530	-0.004107	0.000042	0.003928
24824	12112086	-9.832118	-0.102947	0.016397	-0.002871	-0.001247	-0.004289
24825	12112111	-9.832639	-0.092236	0.001020	-0.002724	0.000443	-0.003061
24826	12112136	-9.846304	-0.100399	-0.003620	-0.001641	-0.005746	-0.003929
24827	12112161	-9.852268	-0.078003	-0.009943	0.000191	0.001991	0.004192
24828	12112186	-9.838915	-0.107002	-0.029035	0.001498	-0.007421	0.000730
24829	12112211	-9.813571	-0.080690	-0.022978	0.000198	-0.004861	-0.000149
24830	12112236	-9.821624	-0.088037	-0.014353	0.002155	-0.001927	-0.000270
24831	12112261	-9.827566	-0.099167	-0.032491	-0.006571	-0.005363	0.002304
24832	12112286	-9.830070	-0.097604	-0.016193	-0.002909	-0.003497	0.002365
24833	12112311	-9.825778	-0.090150	-0.032062	-0.001277	-0.002426	0.002758
24834	12112336	-9.808040	-0.107834	-0.013902	-0.001389	-0.003348	-0.001362
24835	12112361	-9.827584	-0.094382	-0.040225	-0.000469	-0.002030	-0.000899
24836	12112386	-9.829330	-0.085865	-0.005710	-0.002933	0.001419	0.002712
24837	12112411	-9.830671	-0.119751	-0.029690	0.000972	0.001031	-0.002167
24838	12112436	-9.821826	-0.104914	-0.026346	-0.001171	0.000022	-0.000630
24839	12112461	-9.821248	-0.110086	-0.031100	-0.010696	-0.002603	-0.001329
24840	12112486	-9.830200	-0.109433	-0.048842	-0.005969	0.002201	0.001702
24841	12112511	-9.844613	-0.108473	-0.030029	-0.001875	-0.002186	-0.000191
24842	12112536	-9.823238	-0.114258	-0.009547	-0.001858	-0.002512	-0.000580
24843	12112561	-9.820265	-0.093083	0.005285	-0.003429	-0.001633	-0.002113
24844	12112586	-9.837639	-0.117606	0.014421	-0.002724	0.002770	-0.001702
24845	12112611	-9.827131	-0.108131	-0.007117	-0.005983	-0.001289	0.002579
24846	12112636	-9.810875	-0.111260	-0.012956	-0.005625	-0.001359	-0.005181
24847	12112661	-9.834106	-0.114568	-0.022415	-0.004230	-0.002088	0.005010
24848	12112686	-9.836173	-0.107775	-0.009427	0.000232	-0.003959	-0.001624
24849	12112711	-9.825218	-0.116381	0.006199	-0.001289	0.001699	0.000590
24850	12112736	-9.812154	-0.119562	-0.019134	-0.004174	-0.003903	0.005056
24851	12112761	-9.838385	-0.112173	-0.030586	-0.003852	-0.000151	0.000335
24852	12112786	-9.835241	-0.095141	-0.031991	-0.002626	-0.003116	-0.007056
24853	12112811	-9.818890	-0.119816	-0.008612	-0.004719	-0.000808	0.003925
24854	12112836	-9.829264	-0.090166	-0.009035	-0.003745	-0.002037	-0.005190
24855	12112861	-9.832883	-0.097489	-0.025334	-0.002456	0.000067	-0.000247
24856	12112886	-9.832454	-0.098077	-0.016245	-0.002547	0.001293	0.000340
24857	12112911	-9.828967	-0.107469	-0.020570	-0.007795	0.001134	0.001127
24858	12112936	-9.837216	-0.100154	-0.010930	-0.006160	-0.000130	-0.001712
24859	12112961	-9.836091	-0.108455	-0.022436	-0.008205	0.000165	0.003685
24860	12112986	-9.822357	-0.106527	-0.013338	-0.000317	-0.004673	0.002356
24861	12113011	-9.817128	-0.106081	-0.012933	-0.005701	-0.002778	-0.003010
24862	12113036	-9.844947	-0.099048	0.003937	-0.006096	0.002003	-0.002789
24863	12113061	-9.843147	-0.109798	-0.034820	-0.009060	-0.001346	0.000924
24864	12113086	-9.852438	-0.089551	-0.036236	-0.006853	-0.000927	-0.004917
24865	12113111	-9.847296	-0.089714	-0.018967	-0.001498	-0.003599	0.001085
24866	12113136	-9.855233	-0.094302	-0.037667	-0.004388	-0.001849	-0.003457
24867	12113161	-9.848809	-0.089440	-0.006502	-0.006305	-0.003493	0.000839
24868	12113186	-9.811447	-0.099775	-0.019661	-0.009078	-0.003619	-0.007172
24869	12113211	-9.827122	-0.113566	0.000506	-0.006172	-0.000274	-0.008063
24870	12113236	-9.835440	-0.093094	-0.005175	-0.005302	-0.000955	0.000335
24871	12113261	-9.852783	-0.110309	-0.015643	-0.001962	-0.001618	-0.005510
24872	12113286	-9.825844	-0.094296	-0.013883	-0.003673	0.002173	-0.002021
24873	12113311	-9.834979	-0.113463	-0.038798	-0.005588	0.001946	-0.002666
24874	12113336	-9.825050	-0.107111	-0.039279	-0.006434	0.000384	-0.000103
24875	12113361	-9.837270	-0.118190	-0.042532	-0.006153	-0.002588	-0.001979
24876	12113386	-9.806156	-0.139899	-0.024445	0.001587	-0.004323	-0.000989
24877	12113411	-9.816321	-0.125837	-0.025793	-0.001776	-0.006014	-0.007270
24878	12113436	-9.814912	-0.124285	-0.027305	0.000057	-0.002412	-0.000398
24879	12113461	-9.837341	-0.083368	-0.024383	-0.004910	0.000857	-0.000942
24880	12113486	-9.833270	-0.108564	-0.017190	-0.002666	0.000440	-0.002681
24881	12113511	-9.837067	-0.109062	-0.017186	-0.003611	0.000301	0.000334
24882	12113536	-9.822231	-0.100343	-0.047963	-0.008786	0.004022	-0.001425
24883	12113561	-9.822285	-0.109819	-0.019088	-0.004497	-0.004303	-0.000645
24884	12113586	-9.833747	-0.106577	-0.020590	0.000125	0.005923	0.001068
24885	12113611	-9.834248	-0.101312	-0.027717	-0.004475	-0.000753	-0.001785
24886	12113636	-9.815049	-0.123167	-0.008147	-0.005044	-0.003277	-0.001478
24887	12113661	-9.825045	-0.109080	-0.035929	0.000545	0.000702	0.002058
24888	12113686	-9.828109	-0.103321	-0.014846	-0.003718	0.001590	-0.002542
24889	12113711	-9.849310	-0.089524	-0.002269	-0.008798	0.000337	-0.002086
24890	12113736	-9.843606	-0.082560	-0.014282	-0.000696	0.001459	0.000916
24891	12113761	-9.858191	-0.094601	-0.017978	-0.002621	-0.000454	0.001365
24892	12113786	-9.850538	-0.098320	-0.017520	-0.001822	-0.003798	-0.000592
24893	12113811	-9.801399	-0.097453	-0.032197	-0.001796	-0.000574	-0.000699
24894	12113836	-9.851114	-0.100091	0.002123	-0.003518	-0.002998	-0.003013
24895	12113861	-9.829622	-0.109885	0.013032	-0.007620	-0.002347	0.001296
24896	12113886	-9.834141	-0.109369	-0.028687	-0.000305	-0.000997	-0.002691
24897	12113911	-9.847206	-0.093385	-0.027166	-0.008866	0.000340	-0.001821
24898	12113936	-9.822851	-0.100206	-0.023940	-0.007272	0.001018	0.002213
24899	12113961	-9.839241	-0.096127	-0.002271	-0.003918	-0.000750	-0.006653
24900	12113986	-9.845214	-0.101573	-0.024304	-0.006194	-0.001633	-0.007553
24901	12114011	-9.836078	-0.075955	-0.011847	-0.008839	-0.004511	-0.000764
24902	12114036	-9.837627	-0.102441	-0.018620	-0.000505	0.001195	-0.002103
24903	12114061	-9.819609	-0.098488	-0.013347	-0.008737	-0.003928	-0.001854
24904	12114086	-9.824157	-0.112203	-0.020109	-0.004160	-0.000615	-0.001594
24905	12114111	-9.847866	-0.103424	-0.055514	-0.005069	0.003758	-0.003813
24906	12114136	-9.820515	-0.095444	-0.026359	0.000902	0.001283	-0.001657
24907	12114161	-9.829575	-0.103922	-0.008054	-0.006756	-0.003634	-0.002241
24908	12114186	-9.822917	-0.122710	-0.046005	-0.004850	0.000986	0.000153
24909	12114211	-9.858263	-0.087900	-0.022337	-0.001675	0.001821	-0.001514
24910	12114236	-9.820330	-0.098896	-0.050795	-0.003465	-0.000542	-0.002688
24911	12114261	-9.833081	-0.082811	-0.020515	-0.006381	-0.002776	0.004753
24912	12114286	-9.807418	-0.104480	-0.046109	0.001781	0.001679	-0.003839
24913	12114311	-9.840793	-0.098596	-0.053588	-0.001639	0.000590	-0.001143
24914	12114336	-9.842460	-0.112276	-0.065114	-0.001201	0.002731	-0.004785
24915	12114361	-9.832072	-0.111322	-0.052246	0.003794	0.002816	-0.002359
24916	12114386	-9.834717	-0.094966	-0.041605	-0.002708	-0.002404	-0.004297
24917	12114411	-9.814053	-0.118181	-0.025475	-0.004010	0.004554	-0.004257
24918	12114436	-9.823106	-0.115876	-0.028338	-0.001392	0.004923	-0.003107
24919	12114461	-9.837044	-0.101614	-0.036853	-0.000091	0.002629	0.002654
24920	12114486	-9.847034	-0.101241	-0.037210	0.002541	-0.003651	0.003316
24921	12114511	-9.828657	-0.094200	-0.021040	-0.001496	0.000210	0.001168
24922	12114536	-9.837789	-0.088165	-0.020984	-0.004245	-0.002104	-0.002815
24923	12114561	-9.824012	-0.084685	-0.020075	-0.000848	-0.002435	-0.003599
24924	12114586	-9.833191	-0.106907	-0.032013	-0.001666	-0.002964	-0.003408
24925	12114611	-9.834658	-0.113388	-0.012388	0.000688	-0.000407	-0.005643
24926	12114636	-9.822316	-0.118675	0.005766	0.003766	0.000185	0.004034
24927	12114661	-9.824536	-0.090712	-0.001858	-0.000134	-0.002743	-0.004822
24928	12114686	-9.824377	-0.102036	-0.004342	0.002646	0.002801	-0.002868
24929	12114711	-9.844780	-0.116706	0.013546	-0.001058	0.000808	0.002196
24930	12114736	-9.831429	-0.105259	-0.014809	-0.000191	-0.000603	-0.002307
24931	12114761	-9.826853	-0.103677	0.014467	-0.001116	-0.003459	0.003135
24932	12114786	-9.812105	-0.106527	0.022468	0.000063	-0.000349	-0.001024
24933	12114811	-9.831339	-0.087171	0.013032	-0.001258	-0.001082	-0.000699
24934	12114836	-9.839802	-0.111287	-0.033921	0.001010	-0.000468	-0.005062
24935	12114861	-9.836226	-0.103533	-0.009502	-0.004949	-0.000250	-0.005306
24936	12114886	-9.848613	-0.094812	-0.028174	-0.004975	0.000858	-0.002159
24937	12114911	-9.850788	-0.084220	-0.006987	-0.004414	-0.002876	-0.000446
24938	12114936	-9.824870	-0.100110	-0.005686	-0.003663	-0.002486	-0.003074
24939	12114961	-9.821522	-0.091183	-0.024437	-0.000197	-0.000283	0.001477
24940	12114986	-9.840322	-0.077338	-0.017094	-0.004719	-0.003470	-0.002243
24941	12115011	-9.813107	-0.083150	-0.016763	0.000487	-0.004026	-0.000785
24942	12115036	-9.831701	-0.083977	-0.013372	-0.000969	0.001304	-0.005564
24943	12115061	-9.828115	-0.100874	-0.019089	-0.009102	-0.002383	-0.002164
24944	12115086	-9.838001	-0.106630	-0.024295	-0.000568	-0.003141	-0.003535
24945	12115111	-9.798473	-0.101171	-0.036997	0.001556	-0.001423	-0.002833
24946	12115136	-9.834051	-0.118418	-0.024352	-0.000782	-0.002041	-0.000323
24947	12115161	-9.836167	-0.099410	-0.027233	-0.002672	0.001159	0.000918
24948	12115186	-9.816401	-0.127921	-0.010095	-0.000538	-0.000109	-0.005254
24949	12115211	-9.833735	-0.104103	-0.028210	-0.000614	0.000675	-0.000376
24950	12115236	-9.838186	-0.121543	-0.043019	-0.000870	0.000346	-0.002812
24951	12115261	-9.828627	-0.084821	-0.045970	-0.001483	0.001563	-0.003055
24952	12115286	-9.843815	-0.087790	-0.046835	-0.000685	-0.001068	0.000069
24953	12115311	-9.837276	-0.082150	-0.037829	0.002152	0.002606	0.001359
24954	12115336	-9.831999	-0.093800	-0.020985	0.000608	-0.002024	-0.004108
24955	12115361	-9.839458	-0.102744	-0.029132	-0.000532	-0.002035	-0.000647
24956	12115386	-9.860617	-0.084448	-0.033843	-0.001936	-0.000054	-0.000240
24957	12115411	-9.850984	-0.102696	-0.013710	-0.001466	-0.000960	-0.003268
24958	12115436	-9.850751	-0.106500	-0.043450	-0.002223	0.000642	-0.003317
24959	12115461	-9.839762	-0.123362	-0.014235	-0.000945	-0.003332	-0.000647
24960	12115486	-9.846835	-0.123300	-0.027670	-0.002420	-0.001171	-0.003457
24961	12115511	-9.849745	-0.132269	0.000175	0.000675	-0.001752	-0.001478
24962	12115536	-9.840494	-0.100522	-0.019489	-0.002852	-0.001299	0.001484
24963	12115561	-9.825535	-0.127689	0.002978	-0.004211	-0.005065	0.002490
24964	12115586	-9.841967	-0.097780	-0.017621	-0.005856	-0.001678	-0.001399
24965	12115611	-9.835302	-0.099599	-0.014774	-0.000538	0.000161	-0.000954
24966	12115636	-9.798596	-0.109389	0.000413	-0.002736	-0.001566	-0.004487
24967	12115661	-9.821826	-0.090511	0.021088	-0.011145	-0.000355	-0.002924
24968	12115686	-9.841591	-0.103370	0.010192	-0.004059	0.000224	-0.000620
24969	12115711	-9.821664	-0.091603	-0.001924	-0.001110	-0.000049	-0.003262
24970	12115736	-9.852558	-0.085924	-0.023794	-0.004084	-0.001001	-0.000887
24971	12115761	-9.845394	-0.091606	-0.015672	-0.006504	-0.001428	0.000013
24972	12115786	-9.837681	-0.098173	-0.016152	-0.010130	-0.002331	-0.000171
24973	12115811	-9.816879	-0.087038	-0.015829	-0.005747	0.000842	-0.002089
24974	12115836	-9.834629	-0.087578	0.007241	-0.004606	0.001448	-0.000294
24975	12115861	-9.832297	-0.074972	-0.011449	-0.006089	0.001346	-0.004905
24976	12115886	-9.827733	-0.093782	-0.016189	0.004777	-0.005749	0.000472
24977	12115911	-9.849577	-0.083645	-0.049757	-0.001360	0.003821	-0.003946
24978	12115936	-9.820539	-0.094505	-0.023925	0.001478	-0.000709	-0.000067
24979	12115961	-9.827841	-0.077375	-0.034514	-0.000632	0.001326	-0.001079
24980	12115986	-9.831738	-0.078626	-0.016202	-0.004148	-0.000933	0.000657
24981	12116011	-9.823675	-0.102797	-0.038325	-0.000314	-0.002477	0.004478
24982	12116036	-9.831470	-0.088266	-0.040657	-0.003169	0.000498	-0.000171
24983	12116061	-9.848982	-0.090138	-0.055929	-0.003356	-0.001895	-0.003076
24984	12116086	-9.865503	-0.107667	-0.043887	-0.001805	0.001422	-0.005686
24985	12116111	-9.828072	-0.092457	-0.043106	0.003748	0.000031	-0.004746
24986	12116136	-9.835016	-0.117959	-0.022395	-0.004956	-0.001916	-0.001271
24987	12116161	-9.831590	-0.118668	-0.036313	0.000985	-0.003564	-0.000782
24988	12116186	-9.839617	-0.085108	-0.038750	-0.005603	-0.001940	-0.005762
24989	12116211	-9.797507	-0.113377	-0.013967	-0.000291	-0.001645	-0.001095
24990	12116236	-9.852046	-0.102491	0.004026	0.000207	-0.001055	-0.001730
24991	12116261	-9.849970	-0.108878	-0.011297	-0.002655	-0.004080	-0.004053
24992	12116286	-9.816647	-0.110437	-0.004758	-0.002155	-0.001423	-0.001538
24993	12116311	-9.850609	-0.137926	-0.001657	-0.001524	-0.007285	-0.000027
24994	12116336	-9.809560	-0.106578	-0.001432	-0.007017	-0.003177	0.002699
24995	12116361	-9.824503	-0.128998	-0.005708	-0.007066	-0.001889	0.000654
24996	12116386	-9.826326	-0.096715	-0.008159	-0.001612	0.004084	-0.000037
24997	12116411	-9.813331	-0.108001	-0.007219	-0.006354	-0.000270	-0.002803
24998	12116436	-9.836125	-0.110550	-0.013816	0.001675	0.000970	-0.001988
24999	12116461	-9.836303	-0.132323	-0.017133	0.004131	-0.001760	-0.002451
25000	12116486	-9.833906	-0.102193	-0.002721	-0.006604	-0.004800	-0.005132
25001	12116511	-9.851032	-0.092484	-0.025226	0.002258	-0.003079	0.001143
25002	12116536	-9.837990	-0.108047	-0.024809	-0.002716	-0.001886	-0.003463
25003	12116561	-9.823852	-0.092595	-0.031635	-0.003678	0.000097	-0.004093
25004	12116586	-9.836102	-0.099242	-0.039697	-0.003728	-0.000286	-0.002939
25005	12116611	-9.816813	-0.080483	-0.038262	0.000624	-0.006218	0.000542
25006	12116636	-9.827650	-0.092121	-0.033981	-0.007762	-0.002232	-0.003003
25007	12116661	-9.850198	-0.090289	-0.011316	-0.008418	-0.001390	0.001949
25008	12116686	-9.826654	-0.109125	-0.006212	-0.006579	0.002892	-0.000989
25009	12116711	-9.848475	-0.099836	-0.040582	-0.004384	-0.001845	-0.001658
25010	12116736	-9.820395	-0.108342	-0.018693	-0.004537	-0.000745	0.000784
25011	12116761	-9.801924	-0.135081	-0.024952	-0.004853	-0.003149	-0.000709
25012	12116786	-9.796286	-0.124888	-0.034202	-0.003774	0.001466	0.000528
25013	12116811	-9.800474	-0.104436	-0.013917	-0.006160	-0.004728	-0.004496
25014	12116836	-9.832400	-0.093597	-0.033931	-0.002210	-0.003751	-0.002185
25015	12116861	-9.834880	-0.091890	-0.021477	-0.007479	-0.000992	-0.001389
25016	12116886	-9.848617	-0.106582	-0.002197	-0.006324	-0.001363	-0.003250
25017	12116911	-9.846181	-0.090228	-0.044874	-0.001572	-0.003274	0.001985
25018	12116936	-9.844655	-0.105644	-0.029575	-0.002931	-0.001045	-0.001019
25019	12116961	-9.820014	-0.106598	-0.007635	-0.004809	-0.002493	-0.000061
25020	12116986	-9.826027	-0.127814	0.006259	-0.009733	-0.000650	-0.003313
25021	12117011	-9.824657	-0.113734	-0.011908	-0.001632	-0.003473	0.000888
25022	12117036	-9.817319	-0.126905	-0.018219	0.000967	0.000897	-0.003906
25023	12117061	-9.833763	-0.113552	-0.002741	-0.005879	-0.005433	-0.004815
25024	12117086	-9.800500	-0.112731	0.006164	-0.007932	-0.002809	0.001420
25025	12117111	-9.836185	-0.110197	-0.003699	-0.004676	-0.002560	-0.000252
25026	12117136	-9.841996	-0.107109	0.006805	-0.007705	0.000232	0.000024
25027	12117161	-9.813346	-0.105985	-0.006246	-0.003524	0.000185	0.005275
25028	12117186	-9.822864	-0.096399	-0.027734	-0.003204	-0.004405	0.001657
25029	12117211	-9.830539	-0.087807	-0.038784	0.000273	0.000691	-0.004034
25030	12117236	-9.844410	-0.096936	-0.010838	0.000967	-0.003046	-0.001487
25031	12117261	-9.840803	-0.115319	-0.017154	-0.001381	0.000201	-0.005890
25032	12117286	-9.864277	-0.094380	-0.037646	-0.005905	-0.000060	-0.000362
25033	12117311	-9.853763	-0.100043	-0.032397	-0.005829	-0.000452	-0.000617
25034	12117336	-9.840548	-0.095760	-0.020987	-0.007206	-0.001507	-0.001910
25035	12117361	-9.821499	-0.102896	-0.006243	-0.006256	0.000767	-0.001964
25036	12117386	-9.851467	-0.095895	-0.025201	-0.007600	-0.003457	-0.002813
25037	12117411	-9.864068	-0.077956	-0.028098	-0.010225	0.002828	-0.003603
25038	12117436	-9.823243	-0.076857	-0.006684	-0.007728	-0.001657	-0.007163
25039	12117461	-9.834391	-0.104093	0.003005	-0.004232	-0.002033	0.001484
25040	12117486	-9.815741	-0.100713	-0.017234	-0.002907	-0.003819	0.000760
25041	12117511	-9.827306	-0.089442	-0.016712	-0.009273	-0.002569	0.003417
25042	12117536	-9.831016	-0.086398	-0.041591	-0.009857	-0.003049	-0.005178
25043	12117561	-9.832030	-0.094345	-0.014794	-0.000913	-0.000241	-0.002557
25044	12117586	-9.844196	-0.067759	-0.026695	-0.003502	-0.001316	-0.001465
25045	12117611	-9.845047	-0.078762	-0.022903	-0.004753	0.001763	-0.004394
25046	12117636	-9.817285	-0.093220	-0.013915	-0.006002	0.001037	-0.000164
25047	12117661	-9.837961	-0.105009	-0.035348	-0.002755	-0.002593	-0.001347
25048	12117686	-9.831053	-0.130770	-0.022430	-0.000282	-0.001901	-0.001606
25049	12117711	-9.842012	-0.090536	-0.024303	-0.007232	-0.003128	-0.004736
25050	12117736	-9.815786	-0.128073	-0.032173	-0.003920	0.001840	-0.003186
25051	12117761	-9.832663	-0.113135	-0.028191	-0.002438	-0.000590	-0.001912
25052	12117786	-9.792660	-0.121464	-0.010177	-0.005321	-0.000703	-0.002743
25053	12117811	-9.803713	-0.083377	0.003754	-0.003293	0.000240	-0.001523
25054	12117836	-9.810406	-0.111222	-0.010066	-0.003602	-0.002281	-0.000958
25055	12117861	-9.832388	-0.101875	-0.017610	-0.004695	-0.004046	0.000508
25056	12117886	-9.837646	-0.106898	-0.005638	-0.004070	0.000420	-0.001581
25057	12117911	-9.846836	-0.085386	-0.025230	-0.003345	-0.004157	-0.001800
25058	12117936	-9.816522	-0.107650	-0.031566	-0.000229	-0.005843	-0.001636
25059	12117961	-9.820354	-0.112641	-0.017759	-0.004609	0.001509	0.000471
25060	12117986	-9.832425	-0.110714	0.005907	-0.006346	-0.006133	0.003709
25061	12118011	-9.827185	-0.098962	-0.018687	-0.003575	0.001206	-0.002225
25062	12118036	-9.832323	-0.096299	-0.041198	-0.001448	0.002865	0.001368
25063	12118061	-9.824197	-0.109870	-0.019119	-0.004433	-0.002304	-0.003204
25064	12118086	-9.836433	-0.093761	0.002499	-0.010104	-0.001377	-0.007161
25065	12118111	-9.826718	-0.094152	-0.027271	-0.007260	-0.002162	-0.005122
25066	12118136	-9.842026	-0.095411	-0.013268	-0.007141	-0.003698	-0.000313
25067	12118161	-9.851170	-0.093816	-0.001715	-0.004973	-0.003277	-0.000191
25068	12118186	-9.839320	-0.112184	-0.029980	-0.002965	-0.008078	0.001833
25069	12118211	-9.831387	-0.107107	-0.016154	-0.003046	-0.005823	-0.001362
25070	12118236	-9.796445	-0.127298	-0.003413	-0.001778	-0.005484	-0.002462
25071	12118261	-9.848237	-0.086283	-0.028127	-0.003302	-0.001246	0.000007
25072	12118286	-9.815036	-0.112468	-0.030637	-0.008765	-0.005420	-0.006093
25073	12118311	-9.826754	-0.096176	-0.016251	-0.004704	0.000082	-0.004277
25074	12118336	-9.842455	-0.096811	-0.017619	-0.003698	-0.000997	-0.001273
25075	12118361	-9.852741	-0.109183	-0.023780	-0.005870	0.000583	-0.003369
25076	12118386	-9.811651	-0.122558	-0.016290	-0.004496	-0.002237	-0.001407
25077	12118411	-9.823208	-0.108785	-0.026294	-0.005260	-0.004578	-0.002955
25078	12118436	-9.818273	-0.120531	-0.030697	-0.002719	0.002179	-0.003123
25079	12118461	-9.814024	-0.114656	-0.034568	-0.003527	0.001793	0.000919
25080	12118486	-9.832037	-0.092396	-0.018610	-0.004803	0.001244	-0.001320
25081	12118511	-9.839773	-0.091786	0.001038	-0.003593	-0.000082	0.000462
25082	12118536	-9.808195	-0.094435	-0.018276	-0.009331	0.001173	0.001322
25083	12118561	-9.802835	-0.104388	-0.016822	-0.001970	-0.001423	-0.003526
25084	12118586	-9.833370	-0.101044	-0.016718	0.000723	0.000434	-0.007109
25085	12118611	-9.836716	-0.103507	-0.007582	-0.007422	-0.000796	-0.000879
25086	12118636	-9.832899	-0.102512	-0.011911	-0.002816	-0.000918	-0.004038
25087	12118661	-9.849996	-0.097649	-0.028552	-0.007270	-0.003636	-0.000696
25088	12118686	-9.830511	-0.096992	-0.022953	-0.006324	-0.000837	0.002515
25089	12118711	-9.796137	-0.114021	-0.002982	-0.003187	-0.001186	-0.002562
25090	12118736	-9.824652	-0.078730	-0.008120	0.002006	0.000586	-0.003079
25091	12118761	-9.807509	-0.121279	0.001881	-0.005625	-0.002894	0.002372
25092	12118786	-9.859448	-0.079225	-0.002131	-0.002107	-0.004977	-0.001165
25093	12118811	-9.840679	-0.097548	0.003488	-0.003417	-0.002018	-0.000702
25094	12118836	-9.815568	-0.105227	-0.035913	-0.010018	-0.003955	-0.002493
25095	12118861	-9.843105	-0.111715	-0.036299	-0.002652	0.000191	-0.001143
25096	12118886	-9.819484	-0.099626	-0.030169	-0.005515	-0.002378	-0.000380
25097	12118911	-9.830618	-0.094334	-0.011433	-0.011280	0.000171	0.001067
25098	12118936	-9.821409	-0.105070	-0.014380	-0.003487	0.000565	0.001487
25099	12118961	-9.834282	-0.108271	-0.008037	-0.003925	-0.002362	-0.004099
25100	12118986	-9.830528	-0.093667	-0.026724	-0.003482	-0.006226	-0.002839
25101	12119011	-9.839641	-0.101293	-0.002747	-0.000323	-0.002940	-0.004886
25102	12119036	-9.842163	-0.091819	0.001581	-0.005884	-0.002769	0.001548
25103	12119061	-9.824151	-0.125902	0.008676	-0.002868	0.001025	-0.001647
25104	12119086	-9.823346	-0.093903	-0.034011	-0.001235	0.000016	-0.000824
25105	12119111	-9.846126	-0.110750	-0.012816	-0.007920	0.000668	-0.004074
25106	12119136	-9.823847	-0.107708	-0.002390	-0.003339	0.003855	-0.002532
25107	12119161	-9.851916	-0.090850	-0.038164	-0.004393	-0.001062	0.003347
25108	12119186	-9.829540	-0.111623	0.003884	-0.009310	0.000726	0.003566
25109	12119211	-9.814442	-0.119918	-0.034049	-0.005899	-0.000189	0.000721
25110	12119236	-9.819258	-0.123041	-0.018685	-0.003247	-0.001042	0.001737
25111	12119261	-9.840530	-0.095714	-0.023816	-0.001769	-0.001536	-0.000764
25112	12119286	-9.811789	-0.099388	-0.044183	-0.006604	0.005668	-0.002576
25113	12119311	-9.829176	-0.119973	-0.040208	0.004354	-0.000465	0.000249
25114	12119336	-9.827101	-0.106111	-0.018113	-0.006066	-0.003241	-0.001596
25115	12119361	-9.828896	-0.074280	-0.023467	-0.001334	0.000985	-0.003895
25116	12119386	-9.830314	-0.124889	0.000082	-0.004958	0.000469	0.000282
25117	12119411	-9.828270	-0.088035	-0.020109	-0.005685	0.001104	0.001243
25118	12119436	-9.825132	-0.109353	-0.023452	-0.008653	-0.000440	-0.003763
25119	12119461	-9.813531	-0.116979	-0.034537	-0.009522	0.001433	0.004143
25120	12119486	-9.836781	-0.116608	-0.049783	-0.003256	0.003412	0.001314
25121	12119511	-9.857112	-0.104500	-0.020925	-0.009449	0.000782	0.000420
25122	12119536	-9.836203	-0.097029	-0.029616	-0.005145	-0.000119	-0.002156
25123	12119561	-9.822405	-0.111566	0.005240	-0.006099	0.002331	0.000799
25124	12119586	-9.814978	-0.110813	-0.043639	-0.001913	0.001037	-0.002292
25125	12119611	-9.842555	-0.123763	-0.026729	-0.006329	0.000760	-0.006321
25126	12119636	-9.832311	-0.111453	-0.013392	-0.007160	0.003277	-0.000919
25127	12119661	-9.832889	-0.090231	-0.037313	-0.012228	-0.000565	-0.001568
25128	12119686	-9.825480	-0.114386	-0.031553	-0.007346	-0.001122	-0.000684
25129	12119711	-9.815383	-0.117441	-0.042226	-0.003530	0.001724	-0.001320
25130	12119736	-9.820932	-0.103097	-0.018667	-0.004293	-0.000092	0.002711
25131	12119761	-9.814262	-0.108392	-0.010554	-0.000845	-0.000106	0.000197
25132	12119786	-9.830642	-0.100787	0.005808	-0.007129	0.000305	-0.000297
25133	12119811	-9.830248	-0.091186	-0.000836	-0.001204	-0.005277	-0.001553
25134	12119836	-9.825765	-0.089702	-0.036333	-0.003158	-0.006415	-0.003546
25135	12119861	-9.833282	-0.106621	-0.018131	-0.007553	-0.002548	0.000462
25136	12119886	-9.834091	-0.113153	-0.029168	-0.007924	-0.001143	-0.002676
25137	12119911	-9.832245	-0.076774	-0.016241	-0.010107	0.001080	-0.002585
25138	12119936	-9.819919	-0.114720	-0.006210	-0.004183	-0.002041	-0.001661
25139	12119961	-9.799258	-0.121865	-0.022112	-0.005732	0.000121	-0.004786
25140	12119986	-9.830056	-0.105431	-0.002810	-0.004596	-0.001149	-0.003259
25141	12120011	-9.802418	-0.101158	-0.014447	-0.007723	-0.001599	-0.004989
25142	12120036	-9.824634	-0.110735	-0.021540	-0.008103	-0.001590	0.000401
25143	12120061	-9.818940	-0.111726	-0.016745	-0.002538	-0.001633	-0.002816
25144	12120086	-9.829349	-0.103851	-0.044062	-0.006570	0.000499	-0.002542
25145	12120111	-9.818906	-0.113037	-0.020141	-0.008214	0.002354	0.000618
25146	12120136	-9.810613	-0.102500	0.003369	-0.006011	-0.003508	-0.006728
25147	12120161	-9.814251	-0.103034	-0.022087	-0.004187	0.000089	-0.002484
25148	12120186	-9.833187	-0.112254	-0.023899	-0.006114	0.000313	-0.001964
25149	12120211	-9.835540	-0.102425	-0.046904	-0.006610	-0.000279	-0.003184
25150	12120236	-9.824955	-0.092951	-0.006253	-0.005853	0.000450	0.001302
25151	12120261	-9.815680	-0.099142	-0.031187	-0.004634	0.000012	-0.004922
25152	12120286	-9.837299	-0.089103	-0.021033	-0.006470	0.001597	-0.003174
25153	12120311	-9.843707	-0.100270	-0.038620	-0.005069	-0.004575	-0.001350
25154	12120336	-9.809835	-0.120697	-0.006275	-0.005031	0.000860	0.003487
25155	12120361	-9.826571	-0.110891	-0.017241	-0.008938	0.000519	-0.002535
25156	12120386	-9.829448	-0.100682	-0.033499	-0.004241	-0.000237	-0.003064
25157	12120411	-9.836785	-0.104721	0.004915	-0.001036	-0.002576	-0.004427
25158	12120436	-9.839683	-0.102393	0.005852	-0.001839	0.000516	-0.004534
25159	12120461	-9.837697	-0.095305	-0.021461	-0.009058	0.000064	-0.003555
25160	12120486	-9.806043	-0.109964	-0.027408	-0.007039	-0.000736	-0.002164
25161	12120511	-9.839601	-0.125911	-0.036345	-0.003222	0.000106	-0.002295
25162	12120536	-9.824697	-0.109957	-0.014342	-0.003757	-0.001456	-0.003329
25163	12120561	-9.823214	-0.102943	-0.037362	-0.006105	0.001724	-0.006828
25164	12120586	-9.813361	-0.095875	-0.026441	-0.006723	0.003333	-0.003682
25165	12120611	-9.821277	-0.120485	-0.006164	-0.000910	-0.002632	-0.004625
25166	12120636	-9.849350	-0.104052	-0.044463	-0.003748	0.002553	-0.002915
25167	12120661	-9.827715	-0.131145	-0.022954	-0.006357	0.002122	0.000359
25168	12120686	-9.861849	-0.098703	-0.035726	-0.002855	-0.001769	-0.004995
25169	12120711	-9.850043	-0.093354	-0.030534	-0.001436	0.000659	0.002131
25170	12120736	-9.821224	-0.076455	-0.026336	-0.001693	0.000325	-0.000755
25171	12120761	-9.831041	-0.098658	-0.012834	-0.000128	-0.004812	-0.002459
25172	12120786	-9.850269	-0.081242	-0.016625	-0.002415	-0.001167	0.000454
25173	12120811	-9.822516	-0.099180	-0.002355	-0.003932	-0.001974	-0.003071
25174	12120836	-9.827964	-0.115700	-0.013345	-0.008604	-0.002062	-0.003958
25175	12120861	-9.837598	-0.103838	-0.020510	-0.000589	-0.002436	-0.001737
25176	12120886	-9.815473	-0.088538	-0.008666	-0.006993	0.001848	-0.002722
25177	12120911	-9.840679	-0.079964	-0.032504	-0.007686	-0.000490	-0.002156
25178	12120936	-9.844107	-0.073897	-0.028679	-0.006366	0.002247	-0.002658
25179	12120961	-9.830713	-0.086310	-0.013337	-0.003529	-0.002553	-0.003263
25180	12120986	-9.827608	-0.100293	-0.025813	-0.005491	-0.003292	-0.002050
25181	12121011	-9.812413	-0.095367	-0.025412	-0.004300	-0.002629	-0.003138
25182	12121036	-9.830289	-0.104799	-0.044972	-0.001340	-0.003158	-0.004688
25183	12121061	-9.821569	-0.090352	-0.020119	-0.011154	-0.000229	-0.002596
25184	12121086	-9.833866	-0.094159	-0.026254	-0.000940	-0.003468	-0.000075
25185	12121111	-9.841471	-0.090876	-0.035399	-0.001934	0.001678	-0.003503
25186	12121136	-9.842610	-0.088844	-0.008969	-0.004396	-0.001331	-0.000627
25187	12121161	-9.835219	-0.093490	-0.038734	-0.006485	-0.001882	0.002898
25188	12121186	-9.849334	-0.102063	-0.050659	-0.010753	-0.000542	0.000352
25189	12121211	-9.828960	-0.097159	-0.042080	-0.006099	-0.001809	0.002006
25190	12121236	-9.834975	-0.087214	-0.014247	-0.002611	-0.005043	0.002168
25191	12121261	-9.818448	-0.117989	-0.004785	-0.007565	0.000103	0.002597
25192	12121286	-9.810763	-0.104977	-0.044633	-0.001918	0.001492	-0.000304
25193	12121311	-9.818308	-0.114256	-0.038359	-0.008038	0.002213	-0.004642
25194	12121336	-9.817002	-0.119457	-0.005767	-0.004514	-0.001857	-0.003776
25195	12121361	-9.835249	-0.106802	-0.007555	-0.006935	-0.001635	0.002073
25196	12121386	-9.836107	-0.117856	-0.001726	-0.003135	-0.006936	-0.001432
25197	12121411	-9.828281	-0.114328	-0.040127	-0.005165	-0.005358	-0.000776
25198	12121436	-9.817576	-0.105484	-0.019203	-0.005493	0.001103	-0.001775
25199	12121461	-9.840637	-0.096043	-0.004164	-0.001688	-0.003999	-0.001290
25200	12121486	-9.815137	-0.149640	-0.016795	-0.004549	-0.000629	-0.003263
25201	12121511	-9.840793	-0.113312	-0.023778	-0.005156	-0.003871	-0.002563
25202	12121536	-9.826838	-0.126059	-0.019513	-0.008446	-0.005490	-0.006610
25203	12121561	-9.810686	-0.126393	-0.011522	-0.002773	-0.001955	-0.000064
25204	12121586	-9.834337	-0.104445	-0.005657	-0.005046	-0.000760	0.000980
25205	12121611	-9.837191	-0.094763	-0.027707	-0.007020	0.000289	-0.005996
25206	12121636	-9.823230	-0.114282	-0.011924	-0.004470	-0.001609	-0.008585
25207	12121661	-9.807033	-0.113544	-0.012036	-0.005469	-0.001939	-0.001854
25208	12121686	-9.820626	-0.086009	-0.027310	-0.006488	-0.000353	-0.006779
25209	12121711	-9.829336	-0.115049	-0.021952	-0.009993	-0.002335	0.001179
25210	12121736	-9.854299	-0.104134	-0.011811	-0.011566	-0.001197	0.001250
25211	12121761	-9.838080	-0.098453	-0.029606	-0.007007	-0.001766	-0.000174
25212	12121786	-9.828096	-0.110607	-0.002370	-0.006732	0.001791	-0.001886
25213	12121811	-9.840881	-0.076532	-0.004622	-0.003062	-0.004987	0.001468
25214	12121836	-9.827929	-0.075691	-0.022965	-0.002216	-0.001496	-0.002626
25215	12121861	-9.817183	-0.098835	-0.017790	-0.005764	0.003749	-0.000215
25216	12121886	-9.842175	-0.077703	-0.025781	-0.005902	-0.000460	-0.003247
25217	12121911	-9.831093	-0.097346	-0.006619	-0.003263	0.001070	-0.003886
25218	12121936	-9.814356	-0.096984	-0.016837	-0.004610	0.001368	-0.003953
25219	12121961	-9.817797	-0.090855	-0.012020	-0.009558	0.000066	-0.000483
25220	12121986	-9.824781	-0.093018	-0.035895	-0.004928	-0.000963	-0.003384
25221	12122011	-9.822123	-0.077371	-0.033019	-0.003196	-0.003262	-0.005771
25222	12122036	-9.829015	-0.091453	-0.046452	-0.010526	0.000237	-0.001824
25223	12122061	-9.845859	-0.093599	-0.014769	-0.009327	0.004971	-0.001286
25224	12122086	-9.830743	-0.086361	-0.007073	-0.010376	-0.004797	-0.001463
25225	12122111	-9.826517	-0.075181	-0.020623	-0.007629	0.002104	0.002088
25226	12122136	-9.839098	-0.097687	-0.021512	-0.005569	0.003354	-0.004190
25227	12122161	-9.817332	-0.110744	-0.046969	-0.004464	-0.001015	0.000526
25228	12122186	-9.825192	-0.103156	-0.024416	-0.001615	0.001746	-0.003310
25229	12122211	-9.845704	-0.105397	-0.014719	-0.006779	0.001469	0.000809
25230	12122236	-9.844255	-0.103881	-0.020949	-0.004017	-0.001331	-0.002745
25231	12122261	-9.828502	-0.108044	-0.017193	-0.010525	0.000235	0.000292
25232	12122286	-9.821294	-0.102438	-0.040783	-0.010327	0.001648	-0.007144
25233	12122311	-9.832758	-0.098689	-0.041593	-0.006534	-0.002213	0.001360
25234	12122336	-9.825687	-0.111021	-0.005248	-0.009111	0.000000	-0.002730
25235	12122361	-9.832305	-0.105604	-0.025836	-0.004800	0.001304	-0.002536
25236	12122386	-9.810347	-0.139651	-0.040805	-0.012419	0.001764	0.001523
25237	12122411	-9.818077	-0.109011	-0.007167	-0.003439	-0.001384	-0.001466
25238	12122436	-9.824769	-0.102318	-0.017214	-0.003318	-0.003195	-0.003912
25239	12122461	-9.822923	-0.106307	0.000950	-0.002892	0.003992	-0.000094
25240	12122486	-9.823990	-0.100264	0.008221	-0.006220	-0.002077	0.001104
25241	12122511	-9.827065	-0.112875	-0.008571	-0.005542	-0.001292	0.000398
25242	12122536	-9.836775	-0.133769	-0.014282	-0.008456	-0.000562	-0.000165
25243	12122561	-9.860539	-0.105821	-0.001650	-0.009684	-0.004272	-0.001398
25244	12122586	-9.817867	-0.120699	-0.018747	-0.003399	0.003393	-0.004840
25245	12122611	-9.825266	-0.101359	-0.016256	-0.006336	-0.000724	-0.002228
25246	12122636	-9.834421	-0.079240	-0.042558	-0.002451	-0.002205	-0.001791
25247	12122661	-9.803742	-0.111610	-0.010101	0.000647	-0.002994	-0.001489
25248	12122686	-9.837097	-0.104200	-0.021919	-0.003588	-0.002606	0.001736
25249	12122711	-9.826004	-0.105693	-0.041675	-0.002727	-0.001499	-0.001085
25250	12122736	-9.808898	-0.105086	-0.036475	-0.006902	0.001271	0.000806
25251	12122761	-9.839374	-0.086125	0.001529	-0.009981	0.001477	-0.000338
25252	12122786	-9.823680	-0.113648	-0.016692	-0.005634	-0.005038	-0.002187
25253	12122811	-9.826958	-0.084933	-0.005205	-0.004898	-0.001672	-0.000823
25254	12122836	-9.828828	-0.098100	0.014431	-0.003539	-0.000292	-0.003260
25255	12122861	-9.812201	-0.113908	-0.024959	-0.010431	-0.000992	-0.002605
25256	12122886	-9.821444	-0.104231	-0.012929	-0.004099	0.001183	-0.004141
25257	12122911	-9.810577	-0.093046	-0.021126	-0.007734	0.000735	-0.003301
25258	12122936	-9.816931	-0.072565	-0.034964	-0.005309	-0.005367	-0.006931
25259	12122961	-9.842503	-0.095941	-0.011834	-0.009315	-0.003877	-0.002490
25260	12122986	-9.814471	-0.119488	-0.031209	-0.007819	0.003776	-0.001682
25261	12123011	-9.837042	-0.106618	-0.027159	-0.003600	-0.006689	-0.005211
25262	12123036	-9.833402	-0.095262	-0.020540	-0.009324	-0.001554	-0.002287
25263	12123061	-9.827929	-0.111704	-0.026280	-0.000279	-0.002432	-0.005779
25264	12123086	-9.816408	-0.109810	-0.045480	-0.005703	-0.004847	-0.001994
25265	12123111	-9.841196	-0.086972	-0.009929	-0.004336	-0.001533	-0.003770
25266	12123136	-9.826112	-0.111850	-0.012876	-0.006451	-0.001243	-0.001071
25267	12123161	-9.828382	-0.109668	-0.034475	-0.004776	0.000657	-0.001517
25268	12123186	-9.815078	-0.110557	-0.028787	-0.002156	0.002573	-0.003245
25269	12123211	-9.823124	-0.112487	-0.032549	-0.003389	-0.003001	-0.003207
25270	12123236	-9.829129	-0.121851	-0.043107	-0.005519	0.002138	0.002854
25271	12123261	-9.831594	-0.120668	-0.033464	-0.007719	0.000212	-0.004071
25272	12123286	-9.843456	-0.093022	-0.017667	-0.002056	0.003880	0.001314
25273	12123311	-9.819627	-0.131084	-0.021047	-0.003038	-0.001957	-0.001021
25274	12123336	-9.802876	-0.128787	-0.038421	-0.005893	0.001150	-0.003883
25275	12123361	-9.830262	-0.108076	-0.042629	-0.003465	0.002116	0.004068
25276	12123386	-9.818647	-0.127625	-0.033059	-0.006448	0.000495	-0.002922
25277	12123411	-9.830324	-0.120046	-0.008024	-0.010051	-0.004925	-0.002749
25278	12123436	-9.825015	-0.130581	0.003421	-0.007026	-0.003250	-0.000699
25279	12123461	-9.817593	-0.109954	-0.007130	-0.001968	-0.005563	-0.004186
25280	12123486	-9.830379	-0.115297	-0.007593	-0.003862	0.000161	0.000088
25281	12123511	-9.826904	-0.092104	-0.000330	-0.002271	-0.005755	0.000368
25282	12123536	-9.818171	-0.098969	-0.012958	-0.001456	-0.001222	-0.003465
25283	12123561	-9.845710	-0.114710	0.004460	-0.000270	-0.002232	-0.001024
25284	12123586	-9.849018	-0.117624	0.006412	-0.001685	-0.002125	-0.001472
25285	12123611	-9.817165	-0.110052	0.000899	-0.003803	0.004360	-0.000410
25286	12123636	-9.823913	-0.135559	-0.012418	-0.008638	-0.000766	-0.001711
25287	12123661	-9.843403	-0.103625	-0.006100	-0.005421	-0.001161	-0.001074
25288	12123686	-9.831274	-0.118091	-0.011888	-0.004813	-0.002372	-0.000829
25289	12123711	-9.830867	-0.143016	-0.028147	-0.002737	-0.003378	-0.002958
25290	12123736	-9.817566	-0.134533	-0.038362	-0.000963	-0.000492	0.002702
25291	12123761	-9.797936	-0.113288	-0.021184	-0.003721	-0.000490	-0.000890
25292	12123786	-9.811884	-0.116188	0.006207	-0.003554	-0.001572	0.000963
25293	12123811	-9.827274	-0.135682	-0.007581	-0.000806	-0.001724	-0.001863
25294	12123836	-9.801853	-0.131941	-0.042697	-0.002635	-0.002396	0.000705
25295	12123861	-9.826170	-0.107636	-0.011892	0.000152	-0.003850	-0.005397
25296	12123886	-9.830624	-0.088004	-0.025806	-0.002560	-0.002788	-0.001863
25297	12123911	-9.823263	-0.072399	-0.012943	-0.006944	-0.001633	0.000590
25298	12123936	-9.798521	-0.098387	-0.033602	-0.004694	-0.002122	-0.001147
25299	12123961	-9.834366	-0.127788	-0.032968	-0.005634	-0.004911	-0.002764
25300	12123986	-9.818136	-0.092528	-0.030692	-0.008446	-0.000764	-0.000428
25301	12124011	-9.834319	-0.100442	-0.017194	0.000185	0.002110	0.002585
25302	12124036	-9.838284	-0.090105	-0.012372	-0.003329	-0.000341	0.002132
25303	12124061	-9.825521	-0.106158	-0.042662	-0.005689	0.001292	-0.001322
25304	12124086	-9.811968	-0.091501	-0.030715	0.003235	-0.001657	-0.001998
25305	12124111	-9.832305	-0.106057	-0.023470	-0.005491	0.003241	0.001836
25306	12124136	-9.817219	-0.098451	-0.012444	-0.001815	-0.002000	-0.000575
25307	12124161	-9.850764	-0.080772	-0.016638	0.000602	0.000830	0.000653
25308	12124186	-9.820562	-0.120297	-0.045526	0.003661	0.001006	-0.000580
25309	12124211	-9.840173	-0.092603	-0.009978	0.001873	0.000975	0.000453
25310	12124236	-9.824430	-0.088854	-0.021991	0.000483	-0.001569	0.000449
25311	12124261	-9.826761	-0.093237	-0.021004	0.000107	-0.005834	0.002030
25312	12124286	-9.827809	-0.116779	-0.034942	0.003096	0.000337	-0.004430
25313	12124311	-9.833529	-0.120189	-0.028205	0.001960	-0.001667	0.002818
25314	12124336	-9.834295	-0.095535	-0.032013	0.000080	-0.001252	-0.001226
25315	12124361	-9.819327	-0.082388	-0.013418	0.006160	-0.001350	-0.004952
25316	12124386	-9.841508	-0.089868	-0.032498	0.001594	0.002006	0.001621
25317	12124411	-9.842688	-0.117729	-0.014676	0.002934	-0.004503	-0.002334
25318	12124436	-9.815330	-0.091607	-0.024513	0.001650	0.004271	0.002393
25319	12124461	-9.843514	-0.088293	-0.018548	0.005864	-0.001936	-0.004376
25320	12124486	-9.828644	-0.095158	-0.021486	0.001933	-0.003424	-0.004825
25321	12124511	-9.855556	-0.074005	-0.025224	-0.001176	0.000671	0.002903
25322	12124536	-9.814340	-0.089095	-0.036907	-0.001226	-0.000511	-0.002366
25323	12124561	-9.826499	-0.099379	-0.051243	0.000423	-0.001894	-0.000256
25324	12124586	-9.828109	-0.089598	-0.043563	0.000653	-0.001055	-0.001477
25325	12124611	-9.808379	-0.082692	-0.012017	-0.004253	-0.003660	0.000127
25326	12124636	-9.826201	-0.101281	-0.020517	-0.010054	-0.002722	-0.000556
25327	12124661	-9.829662	-0.089489	-0.022920	0.000024	-0.003782	-0.005272
25328	12124686	-9.805606	-0.099831	-0.039848	-0.004844	-0.001414	-0.003137
25329	12124711	-9.826207	-0.097911	-0.026307	-0.002362	-0.001110	-0.002618
25330	12124736	-9.852118	-0.085051	-0.018994	-0.004365	-0.002307	-0.001276
25331	12124761	-9.829760	-0.108557	-0.043562	0.000930	-0.001563	0.000763
25332	12124786	-9.830135	-0.087993	-0.025826	-0.008644	-0.000572	-0.000937
25333	12124811	-9.817581	-0.111917	-0.005242	-0.001431	-0.002329	-0.005005
25334	12124836	-9.837973	-0.072483	-0.023877	-0.008288	-0.001797	-0.003570
25335	12124861	-9.838653	-0.093279	-0.024255	-0.004353	-0.006753	0.001521
25336	12124886	-9.845994	-0.092025	0.005429	-0.003164	-0.002164	-0.004673
25337	12124911	-9.831034	-0.102549	-0.005685	-0.004068	-0.001788	-0.004353
25338	12124936	-9.815300	-0.108658	0.003906	-0.002384	-0.006405	-0.000919
25339	12124961	-9.819989	-0.113912	0.002942	-0.009342	-0.003171	-0.003450
25340	12124986	-9.811247	-0.114336	-0.023106	-0.002621	0.001542	-0.000113
25341	12125011	-9.842950	-0.096849	-0.013761	-0.005835	-0.002073	0.001550
25342	12125036	-9.838736	-0.083758	-0.029678	-0.003165	0.002432	0.000155
25343	12125061	-9.826785	-0.103536	0.003377	-0.002776	0.000314	0.001360
25344	12125086	-9.832936	-0.110415	0.010185	-0.003883	-0.003399	-0.002053
25345	12125111	-9.838639	-0.104120	-0.004218	-0.005119	-0.003035	-0.005193
25346	12125136	-9.818225	-0.125337	-0.027706	-0.003432	-0.005786	-0.003669
25347	12125161	-9.842992	-0.097915	-0.006572	-0.002109	-0.000840	-0.001788
25348	12125186	-9.838688	-0.097306	-0.008988	-0.002100	-0.000772	0.001617
25349	12125211	-9.806508	-0.115334	-0.016793	-0.006892	-0.001188	0.000533
25350	12125236	-9.842521	-0.091542	-0.018564	-0.006799	0.000048	-0.000292
25351	12125261	-9.824192	-0.106428	-0.024878	-0.005852	-0.001816	0.000076
25352	12125286	-9.812551	-0.120435	-0.031215	-0.007187	0.001845	-0.000675
25353	12125311	-9.839809	-0.110266	-0.034397	-0.005829	-0.000584	-0.001840
25354	12125336	-9.838385	-0.099476	-0.054540	-0.001828	-0.001411	0.001608
25355	12125361	-9.824584	-0.097904	-0.057944	-0.006171	-0.000210	-0.003821
25356	12125386	-9.855199	-0.104007	-0.022817	-0.004961	0.000465	-0.000870
25357	12125411	-9.828913	-0.118093	-0.008059	-0.004821	-0.004177	0.000317
25358	12125436	-9.834290	-0.094490	-0.034435	-0.010873	0.001660	0.002934
25359	12125461	-9.836416	-0.107641	-0.049727	-0.007379	-0.002296	-0.002997
25360	12125486	-9.821522	-0.100507	-0.007246	-0.011866	0.004153	-0.001030
25361	12125511	-9.832973	-0.095832	-0.013864	-0.007862	0.003058	-0.002198
25362	12125536	-9.820795	-0.114532	-0.019699	-0.008588	0.003760	-0.001554
25363	12125561	-9.825218	-0.110046	-0.006210	-0.003426	0.000426	-0.002098
25364	12125586	-9.839024	-0.101830	-0.022940	-0.001432	0.000410	0.003350
25365	12125611	-9.812951	-0.093057	-0.020631	-0.009054	0.000454	-0.000092
25366	12125636	-9.797841	-0.125290	-0.011597	-0.002742	-0.003052	-0.000775
25367	12125661	-9.806866	-0.114550	-0.038867	-0.009215	-0.000903	-0.001575
25368	12125686	-9.830266	-0.086384	-0.008536	-0.006816	-0.003901	-0.003137
25369	12125711	-9.834623	-0.079759	-0.009946	-0.007980	-0.003532	-0.003257
25370	12125736	-9.819548	-0.111605	0.004368	-0.006495	-0.004157	-0.005385
25371	12125761	-9.845869	-0.093152	-0.011822	-0.008383	-0.000958	-0.003950
25372	12125786	-9.832523	-0.091036	-0.017663	-0.007847	-0.001663	-0.003961
25373	12125811	-9.810851	-0.120463	0.001860	-0.007346	0.000872	-0.002986
25374	12125836	-9.825349	-0.094738	-0.014733	-0.007284	-0.005201	-0.000834
25375	12125861	-9.835217	-0.110245	-0.006127	-0.009358	-0.002791	-0.007039
25376	12125886	-9.822014	-0.130742	-0.021061	-0.005537	-0.000207	-0.007996
25377	12125911	-9.827254	-0.099671	-0.006203	-0.008497	0.000586	-0.005360
25378	12125936	-9.844051	-0.119049	-0.024807	-0.008422	0.000136	-0.005357
25379	12125961	-9.822649	-0.118815	-0.018650	-0.009106	-0.002317	-0.000238
25380	12125986	-9.836107	-0.099743	-0.037719	-0.005947	-0.002915	-0.001015
25381	12126011	-9.827304	-0.124991	-0.022912	-0.008667	-0.001796	-0.000750
25382	12126036	-9.821671	-0.110432	-0.040231	-0.008404	-0.000179	-0.001574
25383	12126061	-9.831220	-0.110121	-0.036373	-0.012395	0.000660	-0.000849
25384	12126086	-9.834422	-0.115675	-0.044936	-0.011513	-0.002809	0.002588
25385	12126111	-9.839932	-0.095479	-0.043024	-0.010878	-0.001006	-0.004330
25386	12126136	-9.827500	-0.091721	-0.057003	-0.012596	-0.000961	0.001320
25387	12126161	-9.834533	-0.084435	-0.015273	-0.015543	0.002855	-0.004102
25388	12126186	-9.818004	-0.104911	-0.028743	-0.020741	-0.003053	-0.005214
25389	12126211	-9.819424	-0.100437	-0.039777	-0.011800	-0.000240	-0.001885
25390	12126236	-9.833934	-0.129308	-0.020531	-0.011495	0.001204	0.006713
25391	12126261	-9.816025	-0.104224	-0.042659	-0.013316	-0.000854	-0.003684
25392	12126286	-9.827959	-0.106853	-0.032080	-0.017874	0.001785	-0.001024
25393	12126311	-9.813206	-0.109642	-0.023547	-0.014941	0.002158	-0.003666
25394	12126336	-9.806085	-0.137247	-0.042219	-0.014094	0.001788	0.000632
25395	12126361	-9.820920	-0.103593	-0.021602	-0.012575	0.002331	-0.002453
25396	12126386	-9.840035	-0.106005	-0.004694	-0.014396	0.000940	-0.002126
25397	12126411	-9.808432	-0.124711	0.004750	-0.010316	0.001597	-0.002904
25398	12126436	-9.842102	-0.093222	-0.005658	-0.010087	0.000432	-0.004134
25399	12126461	-9.836197	-0.117095	0.012056	-0.005683	-0.000964	-0.001270
25400	12126486	-9.810513	-0.115358	0.014835	-0.011566	-0.001067	0.001247
25401	12126511	-9.816740	-0.102908	-0.003319	-0.007285	-0.003269	-0.003199
25402	12126536	-9.812806	-0.113757	-0.003376	-0.009690	-0.000273	-0.003943
25403	12126561	-9.811765	-0.106611	-0.032152	-0.014099	-0.000082	0.000365
25404	12126586	-9.822428	-0.107737	0.000027	-0.013196	-0.000265	-0.000791
25405	12126611	-9.831577	-0.093899	-0.011455	-0.009321	0.002779	-0.001873
25406	12126636	-9.852433	-0.101259	-0.012804	-0.006889	0.000690	0.000605
25407	12126661	-9.800691	-0.118418	-0.026906	-0.005169	-0.001024	0.000910
25408	12126686	-9.834212	-0.104616	-0.025340	-0.003630	0.001012	0.000086
25409	12126711	-9.838963	-0.105626	-0.026212	-0.009924	-0.004788	-0.000313
25410	12126736	-9.850698	-0.087999	-0.011819	-0.006236	-0.001760	-0.001909
25411	12126761	-9.846157	-0.100954	-0.026196	-0.005940	-0.001036	-0.000101
25412	12126786	-9.838872	-0.127964	0.002925	-0.008677	0.002393	-0.004321
25413	12126811	-9.845132	-0.106126	-0.029102	-0.008824	-0.000954	-0.000039
25414	12126836	-9.830064	-0.097104	-0.018113	-0.004658	-0.003217	-0.000833
25415	12126861	-9.831322	-0.114287	-0.012340	-0.005434	-0.005098	-0.000775
25416	12126886	-9.845203	-0.107330	-0.015133	-0.000718	-0.006573	-0.002651
25417	12126911	-9.840798	-0.115276	-0.016117	-0.004904	-0.005408	0.001404
25418	12126936	-9.848797	-0.125911	-0.010830	-0.001317	-0.003408	0.000888
25419	12126961	-9.845035	-0.116166	-0.025755	-0.006688	0.000176	-0.003505
25420	12126986	-9.825670	-0.098704	-0.035457	-0.010337	0.002241	-0.002646
25421	12127011	-9.830009	-0.102317	-0.017643	-0.001717	-0.000967	-0.000954
25422	12127036	-9.825653	-0.089386	-0.054099	-0.004578	-0.003599	-0.000387
25423	12127061	-9.853005	-0.092222	-0.016526	-0.006394	-0.005248	-0.003205
25424	12127086	-9.858168	-0.092585	-0.026564	-0.004491	-0.006631	-0.000784
25425	12127111	-9.806890	-0.113144	-0.034978	-0.003080	-0.006278	0.002548
25426	12127136	-9.843946	-0.092056	-0.017125	-0.002873	-0.000979	0.000139
25427	12127161	-9.836971	-0.080724	-0.012882	-0.005767	0.001480	-0.003691
25428	12127186	-9.835903	-0.093133	-0.006140	-0.003624	-0.003652	-0.003918
25429	12127211	-9.824711	-0.104059	-0.022954	-0.002275	-0.001229	0.001869
25430	12127236	-9.821833	-0.103492	-0.026335	-0.007394	-0.001447	0.001428
25431	12127261	-9.820050	-0.092108	-0.029675	-0.003166	-0.003777	-0.001991
25432	12127286	-9.807019	-0.107593	-0.027856	-0.000703	-0.000885	-0.003205
25433	12127311	-9.848838	-0.112829	-0.032467	-0.002486	0.000957	-0.003061
25434	12127336	-9.811485	-0.102246	-0.009142	-0.001875	-0.000061	-0.001210
25435	12127361	-9.831476	-0.111277	0.007770	-0.000626	-0.003076	0.000697
25436	12127386	-9.824453	-0.087550	-0.020999	-0.004472	-0.005350	-0.004242
25437	12127411	-9.834027	-0.084828	-0.019071	-0.005427	-0.003293	-0.002369
25438	12127436	-9.817701	-0.099929	-0.009551	-0.003843	-0.002359	0.001155
25439	12127461	-9.831880	-0.070283	-0.011428	-0.004441	-0.000446	-0.007166
25440	12127486	-9.824226	-0.111940	-0.009508	-0.004987	-0.003426	-0.007886
25441	12127511	-9.824586	-0.114043	-0.023382	-0.002395	-0.006142	-0.001046
25442	12127536	-9.801052	-0.117676	-0.047522	0.001509	-0.002207	-0.005271
25443	12127561	-9.837061	-0.117831	-0.000410	-0.010049	0.001539	0.001261
25444	12127586	-9.837109	-0.104280	-0.020021	0.000523	-0.000732	-0.000064
25445	12127611	-9.846324	-0.101378	-0.000254	-0.003928	-0.004235	-0.002502
25446	12127636	-9.815222	-0.098718	-0.026818	-0.008252	-0.005089	-0.002500
25447	12127661	-9.831656	-0.090171	-0.006171	-0.002612	0.001284	0.000924
25448	12127686	-9.827745	-0.089392	-0.025839	-0.002466	-0.001699	-0.003266
25449	12127711	-9.812683	-0.116328	-0.018239	-0.006261	0.001158	-0.000416
25450	12127736	-9.850346	-0.109118	-0.027632	-0.004546	-0.000821	-0.003380
25451	12127761	-9.829259	-0.116844	-0.032543	-0.005673	0.000381	-0.002480
25452	12127786	-9.822653	-0.113988	-0.026782	-0.002195	-0.002399	-0.003910
25453	12127811	-9.844600	-0.113891	-0.022875	-0.004146	0.000402	-0.005041
25454	12127836	-9.843946	-0.094043	-0.013799	-0.002579	-0.000012	-0.001912
25455	12127861	-9.826522	-0.106357	-0.034993	-0.006028	0.005476	-0.005525
25456	12127886	-9.826344	-0.126924	-0.021031	-0.006974	-0.002675	0.000137
25457	12127911	-9.832829	-0.096369	-0.036829	-0.004999	-0.000569	-0.001967
25458	12127936	-9.826756	-0.128237	-0.028630	-0.006655	-0.007063	-0.001615
25459	12127961	-9.815418	-0.122468	-0.025364	-0.002049	-0.002852	-0.002123
25460	12127986	-9.825109	-0.116663	-0.010458	-0.005439	-0.005041	-0.003597
25461	12128011	-9.814054	-0.116687	-0.027286	-0.001721	-0.002967	-0.000709
25462	12128036	-9.826862	-0.121637	-0.025382	0.001076	-0.000134	-0.000575
25463	12128061	-9.826344	-0.121522	-0.032539	-0.002076	-0.001940	-0.001474
25464	12128086	-9.846181	-0.103909	-0.018083	-0.007129	0.000112	0.000477
25465	12128111	-9.831017	-0.095655	-0.021438	0.000708	-0.002995	-0.001036
25466	12128136	-9.843670	-0.107074	-0.033400	-0.002648	-0.006416	-0.005342
25467	12128161	-9.860743	-0.086196	-0.009819	-0.003226	-0.001895	-0.001527
25468	12128186	-9.852303	-0.097473	-0.041028	-0.005482	-0.003351	0.000903
25469	12128211	-9.823362	-0.099400	-0.020115	-0.002374	-0.000593	-0.003774
25470	12128236	-9.818250	-0.087412	-0.022490	-0.002727	-0.003630	-0.002505
25471	12128261	-9.826146	-0.131308	-0.044999	-0.006409	-0.000665	-0.002672
25472	12128286	-9.831816	-0.071991	-0.018175	-0.005218	0.000525	-0.001965
25473	12128311	-9.824389	-0.089289	-0.028683	-0.007619	-0.002943	-0.001781
25474	12128336	-9.826536	-0.110745	-0.022947	-0.010410	-0.001115	0.002913
25475	12128361	-9.831434	-0.094975	-0.032563	-0.002933	0.003414	-0.000288
25476	12128386	-9.830999	-0.052724	-0.035444	-0.002056	0.002071	0.002524
25477	12128411	-9.829718	-0.083219	-0.027747	-0.001186	0.000528	-0.001912
25478	12128436	-9.839887	-0.074978	-0.015231	-0.003091	0.000048	0.000913
25479	12128461	-9.842247	-0.081819	-0.003727	-0.000936	-0.001404	-0.002176
25480	12128486	-9.828089	-0.075142	0.001986	-0.001769	-0.003950	-0.007702
25481	12128511	-9.830654	-0.078781	-0.037828	-0.004171	0.001772	0.000155
25482	12128536	-9.817635	-0.095874	-0.030234	-0.004955	0.002007	-0.003883
25483	12128561	-9.844629	-0.070629	-0.027629	-0.002880	-0.003062	-0.004488
25484	12128586	-9.849387	-0.073100	-0.022353	-0.005287	-0.001676	-0.003190
25485	12128611	-9.830968	-0.108297	-0.003739	-0.008170	-0.001730	-0.004403
25486	12128636	-9.852940	-0.096948	-0.018081	-0.000742	0.000599	-0.001974
25487	12128661	-9.810567	-0.097879	-0.013474	0.000727	0.000629	-0.000568
25488	12128686	-9.825171	-0.103557	-0.027831	-0.002114	0.005619	-0.000469
25489	12128711	-9.839744	-0.121873	-0.019949	-0.002591	-0.003694	-0.000453
25490	12128736	-9.803611	-0.127934	0.002278	-0.007825	-0.000167	-0.001904
25491	12128761	-9.820724	-0.131492	0.003413	-0.005881	-0.002916	-0.001150
25492	12128786	-9.860718	-0.097396	0.009304	-0.005206	0.000206	-0.000554
25493	12128811	-9.819494	-0.112927	-0.001372	-0.006099	-0.004406	-0.003400
25494	12128836	-9.853642	-0.088751	0.003084	-0.004114	-0.002305	-0.004356
25495	12128861	-9.821248	-0.116914	-0.018622	-0.002801	-0.005317	-0.000975
25496	12128886	-9.815298	-0.128980	-0.033063	-0.005013	-0.002253	-0.002493
25497	12128911	-9.829026	-0.105169	-0.015735	-0.006977	-0.000343	0.001566
25498	12128936	-9.822816	-0.109476	-0.010041	-0.002110	-0.000839	-0.000252
25499	12128961	-9.841132	-0.128601	-0.013770	-0.002137	0.000258	0.000082
25500	12128986	-9.853381	-0.096836	-0.021319	-0.005445	-0.004709	-0.000833
25501	12129011	-9.840268	-0.113203	-0.031010	-0.000538	-0.003977	-0.002261
25502	12129036	-9.848736	-0.081485	-0.034323	-0.003949	-0.003795	-0.005576
25503	12129061	-9.832727	-0.117661	-0.009032	-0.004527	-0.001203	-0.000311
25504	12129086	-9.859274	-0.090070	-0.008907	-0.003986	-0.000435	-0.006332
25505	12129111	-9.819370	-0.105689	-0.037878	0.004752	0.000758	-0.002311
25506	12129136	-9.827805	-0.113253	-0.044068	0.001955	0.002784	0.001299
25507	12129161	-9.820162	-0.128334	-0.017228	-0.003658	-0.000681	-0.004087
25508	12129186	-9.841768	-0.116850	-0.011365	-0.000566	-0.001277	-0.003910
25509	12129211	-9.826273	-0.086323	-0.038773	-0.000522	-0.000490	-0.002106
25510	12129236	-9.837419	-0.082997	-0.013830	-0.004616	0.001964	0.002019
25511	12129261	-9.814316	-0.091431	-0.035986	-0.000453	0.001578	-0.001842
25512	12129286	-9.847528	-0.064837	-0.032424	-0.002079	-0.001489	0.000264
25513	12129311	-9.803039	-0.100467	0.008523	-0.004102	0.001904	0.001566
25514	12129336	-9.822713	-0.112685	-0.021967	0.001061	-0.006415	-0.006634
25515	12129361	-9.792601	-0.113462	-0.036056	-0.009961	-0.001758	-0.003634
25516	12129386	-9.835350	-0.084049	-0.037834	-0.000991	0.002542	0.000219
25517	12129411	-9.829359	-0.116592	-0.017210	-0.002810	-0.000918	-0.002879
25518	12129436	-9.814299	-0.102180	-0.016740	-0.002685	-0.004990	-0.002900
25519	12129461	-9.815103	-0.114489	-0.015352	0.002818	-0.000297	0.001465
25520	12129486	-9.838240	-0.083278	-0.033452	-0.003454	-0.000940	-0.003834
25521	12129511	-9.826535	-0.099961	-0.045006	-0.000173	-0.001262	-0.000641
25522	12129536	-9.822857	-0.099762	-0.024440	-0.002187	-0.000197	-0.001271
25523	12129561	-9.817558	-0.093233	-0.045981	-0.003123	-0.002864	0.000514
25524	12129586	-9.810204	-0.119505	-0.026872	-0.004315	-0.001916	-0.000893
25525	12129611	-9.805073	-0.116716	-0.015443	-0.000975	0.002156	0.002973
25526	12129636	-9.834326	-0.094142	-0.028222	-0.002865	0.001153	0.001816
25527	12129661	-9.828423	-0.112231	-0.023912	-0.004157	0.000858	-0.005171
25528	12129686	-9.806214	-0.143445	-0.008713	-0.003123	0.000884	-0.003192
25529	12129711	-9.836083	-0.100169	-0.041617	-0.003663	-0.002167	-0.001602
25530	12129736	-9.846306	-0.095483	-0.013752	0.000632	-0.000410	-0.001535
25531	12129761	-9.821147	-0.119604	-0.029702	-0.004916	-0.001213	-0.001273
25532	12129786	-9.841667	-0.124442	-0.013262	-0.008835	-0.003037	-0.004345
25533	12129811	-9.818440	-0.119426	-0.005752	-0.003558	-0.001509	0.000647
25534	12129836	-9.829580	-0.111774	0.009693	-0.004414	-0.003015	-0.002564
25535	12129861	-9.829359	-0.114632	-0.021499	-0.004968	-0.001538	-0.002690
25536	12129886	-9.851371	-0.073838	-0.009442	-0.002058	0.001481	-0.005312
25537	12129911	-9.866208	-0.102278	-0.018474	-0.008062	0.001451	-0.000353
25538	12129936	-9.841919	-0.103026	-0.015186	-0.001046	-0.001982	-0.001420
25539	12129961	-9.840494	-0.101025	-0.018072	0.000203	-0.002928	-0.000270
25540	12129986	-9.840695	-0.086392	-0.016173	-0.003152	-0.000410	-0.003454
25541	12130011	-9.823256	-0.110410	-0.014864	-0.004731	0.001110	-0.003834
25542	12130036	-9.842515	-0.087164	-0.029070	-0.003113	-0.003639	-0.003089
25543	12130061	-9.818368	-0.107564	-0.042673	-0.001121	0.000075	-0.005908
25544	12130086	-9.836662	-0.102880	-0.019100	-0.001502	0.000335	-0.001536
25545	12130111	-9.823978	-0.098772	0.001981	-0.006936	-0.002091	-0.001019
25546	12130136	-9.800051	-0.098712	-0.017380	-0.003102	0.000170	-0.004426
25547	12130161	-9.816467	-0.077342	-0.024436	-0.009644	-0.001355	0.000021
25548	12130186	-9.848195	-0.079811	-0.049211	-0.002600	0.000507	-0.001979
25549	12130211	-9.826594	-0.100234	-0.034345	-0.003275	-0.009206	-0.007415
25550	12130236	-9.824455	-0.083120	-0.029619	-0.002715	-0.004081	-0.002965
25551	12130261	-9.851980	-0.091042	-0.028989	-0.009058	-0.007680	0.000623
25552	12130286	-9.819703	-0.099274	0.004856	-0.000696	-0.005278	-0.004005
25553	12130311	-9.833735	-0.105120	-0.025781	-0.007592	-0.001715	-0.002491
25554	12130336	-9.834921	-0.088606	-0.020506	-0.004250	-0.003853	-0.000401
25555	12130361	-9.824890	-0.116524	-0.046442	-0.007118	-0.000152	0.000338
25556	12130386	-9.855515	-0.108495	-0.038612	-0.004509	-0.001720	0.000131
25557	12130411	-9.843330	-0.100037	-0.024773	-0.002503	-0.002655	-0.003277
25558	12130436	-9.833222	-0.105510	-0.030585	-0.006732	-0.002407	-0.001854
25559	12130461	-9.828806	-0.081375	-0.022479	-0.002974	-0.001627	0.000380
25560	12130486	-9.820013	-0.092952	-0.035957	-0.012212	0.000526	-0.004840
25561	12130511	-9.847188	-0.093332	-0.030508	-0.005597	0.000265	-0.001583
25562	12130536	-9.827023	-0.119163	-0.004260	-0.006080	-0.003047	-0.004685
25563	12130561	-9.807587	-0.108804	-0.009598	-0.009450	-0.003424	0.000647
25564	12130586	-9.828691	-0.092343	-0.021065	-0.007485	0.003131	-0.004518
25565	12130611	-9.817105	-0.111327	-0.006694	-0.004986	-0.001016	-0.000633
25566	12130636	-9.823495	-0.106982	0.015889	-0.000039	-0.003317	0.001781
25567	12130661	-9.823768	-0.117843	0.005276	-0.004482	0.001116	-0.005761
25568	12130686	-9.841198	-0.087415	-0.009892	-0.001946	-0.004005	-0.001873
25569	12130711	-9.834969	-0.089197	-0.010392	-0.006588	-0.005046	0.000055
25570	12130736	-9.825545	-0.088816	0.005314	-0.009228	0.000012	0.001501
25571	12130761	-9.847748	-0.075237	0.024104	-0.007024	-0.001250	-0.002556
25572	12130786	-9.850984	-0.097783	-0.023779	-0.008273	-0.000437	-0.003953
25573	12130811	-9.829502	-0.100813	-0.025264	-0.004177	-0.006697	-0.004514
25574	12130836	-9.817970	-0.080524	-0.005338	-0.001960	0.002782	0.000791
25575	12130861	-9.829891	-0.074876	-0.014294	-0.005433	-0.001223	-0.003196
25576	12130886	-9.837169	-0.062588	-0.018132	-0.003941	-0.001457	-0.001603
25577	12130911	-9.852952	-0.088147	-0.033866	-0.006577	0.000629	-0.003311
25578	12130936	-9.831017	-0.089264	-0.035934	-0.004148	0.003065	-0.001003
25579	12130961	-9.814800	-0.098739	-0.019662	-0.002679	-0.000581	0.003716
25580	12130986	-9.836716	-0.093194	-0.030136	-0.007124	0.002109	0.000608
25581	12131011	-9.823007	-0.122930	-0.030690	-0.004639	0.002350	-0.000300
25582	12131036	-9.830139	-0.113741	-0.050260	-0.003067	0.000753	-0.004026
25583	12131061	-9.827101	-0.100223	-0.029618	-0.005224	-0.003672	-0.002123
25584	12131086	-9.841574	-0.086222	-0.027757	-0.003164	0.004311	-0.001125
25585	12131111	-9.852207	-0.081842	-0.011889	-0.009188	0.004658	-0.001426
25586	12131136	-9.831387	-0.104134	-0.023471	-0.002488	0.003558	0.002715
25587	12131161	-9.855819	-0.092659	-0.022324	-0.010422	-0.000991	-0.001390
25588	12131186	-9.820782	-0.109628	-0.032106	-0.005633	-0.000906	-0.003777
25589	12131211	-9.839124	-0.091861	-0.027635	-0.004470	-0.003338	-0.002377
25590	12131236	-9.812139	-0.121579	-0.017717	-0.008178	-0.005598	-0.003089
25591	12131261	-9.859335	-0.072605	-0.030928	-0.005309	-0.002508	0.001414
25592	12131286	-9.831100	-0.096820	-0.005687	-0.004731	-0.000751	-0.001147
25593	12131311	-9.842414	-0.106422	-0.005082	-0.004992	-0.004499	0.002746
25594	12131336	-9.834504	-0.118860	-0.028695	-0.006191	0.000705	-0.000113
25595	12131361	-9.813748	-0.111764	-0.008159	-0.006831	-0.001568	-0.003392
25596	12131386	-9.809248	-0.103580	0.017182	-0.006801	0.001723	-0.003119
25597	12131411	-9.814839	-0.120774	-0.044992	-0.007550	-0.003402	-0.005001
25598	12131436	-9.821202	-0.079762	-0.022024	0.000885	-0.003612	0.007097
25599	12131461	-9.856282	-0.098057	-0.012213	-0.007051	-0.004683	-0.004175
25600	12131486	-9.839003	-0.113582	-0.004245	-0.009783	0.000896	-0.003630
25601	12131511	-9.822845	-0.105130	-0.016716	-0.005040	-0.001410	-0.002176
25602	12131536	-9.831649	-0.086734	-0.015221	-0.003286	-0.002281	-0.001605
25603	12131561	-9.837510	-0.076404	-0.010462	-0.007226	-0.000469	0.003988
25604	12131586	-9.838222	-0.097373	-0.009478	-0.009286	-0.000778	-0.003763
25605	12131611	-9.824328	-0.102381	-0.012954	-0.001836	0.002711	-0.003578
25606	12131636	-9.814996	-0.115695	-0.030639	-0.006214	-0.004593	0.001079
25607	12131661	-9.826700	-0.093093	-0.032067	-0.004180	-0.000297	-0.003262
25608	12131686	-9.846817	-0.089721	-0.020442	-0.009085	-0.001159	-0.003569
25609	12131711	-9.833569	-0.086337	-0.012887	-0.008765	-0.000766	-0.001463
25610	12131736	-9.827459	-0.119966	-0.009519	-0.005424	-0.001024	0.000969
25611	12131761	-9.834168	-0.107526	-0.027191	-0.007488	-0.001334	-0.005563
25612	12131786	-9.820885	-0.113789	-0.004822	-0.006200	0.001161	0.000593
25613	12131811	-9.844806	-0.099622	-0.017142	-0.008674	0.003059	0.003184
25614	12131836	-9.830433	-0.102235	-0.027263	-0.001840	0.000708	-0.002494
25615	12131861	-9.817123	-0.101585	-0.023059	-0.002700	-0.000130	0.000450
25616	12131886	-9.816301	-0.088184	-0.028768	-0.003910	0.001782	0.001496
25617	12131911	-9.829484	-0.104233	-0.021016	-0.004271	0.000407	-0.004219
25618	12131936	-9.847230	-0.097368	-0.014213	-0.006562	-0.003821	-0.000645
25619	12131961	-9.830702	-0.092114	-0.003274	-0.004458	-0.001654	-0.002690
25620	12131986	-9.841214	-0.075747	-0.031548	-0.006849	0.001137	-0.005175
25621	12132011	-9.857285	-0.089348	-0.023766	-0.003415	-0.000219	-0.003196
25622	12132036	-9.836207	-0.102920	-0.016221	-0.003847	0.001518	-0.002933
25623	12132061	-9.828913	-0.111237	-0.023393	-0.003728	-0.002286	-0.000386
25624	12132086	-9.828101	-0.094485	-0.034922	-0.005119	-0.001027	-0.003394
25625	12132111	-9.821111	-0.105300	-0.063723	-0.003859	-0.002223	-0.001094
25626	12132136	-9.827230	-0.093745	-0.021496	-0.003538	-0.002618	-0.005071
25627	12132161	-9.810019	-0.091828	-0.037440	-0.008307	0.000730	-0.002281
25628	12132186	-9.848660	-0.095433	-0.019483	-0.012435	-0.000183	-0.000992
25629	12132211	-9.815238	-0.116334	0.008643	-0.009158	-0.002775	-0.003073
25630	12132236	-9.823113	-0.074483	-0.033473	-0.010258	-0.004469	-0.001538
25631	12132261	-9.845961	-0.082122	-0.020451	-0.004250	-0.004110	-0.002386
25632	12132286	-9.839302	-0.084965	-0.013351	-0.008370	0.000860	-0.003117
25633	12132311	-9.833890	-0.090804	-0.031057	-0.006527	-0.000918	-0.002037
25634	12132336	-9.838146	-0.093259	-0.027202	-0.001372	-0.001532	0.001150
25635	12132361	-9.820519	-0.098396	-0.019597	-0.007838	-0.004241	-0.004427
25636	12132386	-9.833272	-0.138190	-0.031051	-0.005864	-0.001155	0.003278
25637	12132411	-9.812153	-0.124522	-0.010563	-0.003651	-0.002675	-0.000077
25638	12132436	-9.824841	-0.095135	-0.022556	-0.005512	0.003426	-0.003882
25639	12132461	-9.815584	-0.117981	-0.008221	-0.008313	0.005054	-0.004376
25640	12132486	-9.845906	-0.083425	-0.024795	0.000101	-0.001700	0.000377
25641	12132511	-9.818101	-0.110530	-0.000927	-0.008222	-0.001921	-0.001657
25642	12132536	-9.840906	-0.105274	-0.021467	-0.002806	0.001089	-0.001462
25643	12132561	-9.820668	-0.120597	-0.028744	-0.007728	-0.001457	-0.003389
25644	12132586	-9.845090	-0.104065	-0.041167	-0.004947	0.006151	-0.001748
25645	12132611	-9.833807	-0.130063	-0.039646	-0.002453	-0.004272	-0.001940
25646	12132636	-9.833908	-0.095266	-0.018202	-0.008388	0.003511	-0.000986
25647	12132661	-9.827118	-0.098805	-0.031133	-0.007552	0.003131	-0.004323
25648	12132686	-9.811390	-0.098595	-0.031624	-0.004880	-0.002313	-0.001608
25649	12132711	-9.828401	-0.120448	-0.011366	-0.006154	-0.006659	-0.001432
25650	12132736	-9.847153	-0.095704	-0.030467	-0.005345	-0.005998	-0.001107
25651	12132761	-9.794186	-0.112456	-0.014019	-0.003311	0.000224	-0.007562
25652	12132786	-9.816801	-0.092181	-0.016771	-0.002159	-0.000831	0.001602
25653	12132811	-9.818756	-0.113218	-0.042164	-0.003342	-0.002219	0.001018
25654	12132836	-9.838557	-0.101899	-0.021479	-0.002737	-0.001107	-0.001416
25655	12132861	-9.820104	-0.100014	-0.006671	-0.003082	-0.002407	-0.001609
25656	12132886	-9.795862	-0.126547	-0.022149	-0.003055	-0.001247	-0.001481
25657	12132911	-9.843872	-0.103162	-0.008487	-0.007604	0.000608	-0.005038
25658	12132936	-9.827946	-0.116176	-0.015789	-0.003953	0.000408	-0.007303
25659	12132961	-9.818071	-0.096760	-0.033969	-0.002004	-0.004396	-0.002582
25660	12132986	-9.815810	-0.098985	-0.010525	-0.001699	-0.002009	-0.006039
25661	12133011	-9.856658	-0.077991	0.007894	-0.008495	-0.003804	-0.007175
25662	12133036	-9.826952	-0.111076	-0.032049	-0.006922	-0.000599	-0.001843
25663	12133061	-9.828054	-0.100278	-0.029199	-0.002058	-0.000325	-0.002889
25664	12133086	-9.852676	-0.087249	-0.003176	-0.001509	-0.001740	-0.005069
25665	12133111	-9.844089	-0.094857	0.009716	-0.002979	0.000440	-0.001785
25666	12133136	-9.854989	-0.077348	-0.032354	-0.003323	-0.005326	-0.005275
25667	12133161	-9.827924	-0.082958	-0.007667	-0.007503	0.002177	0.002913
25668	12133186	-9.831392	-0.108590	-0.010499	-0.006823	0.000764	0.002328
25669	12133211	-9.832191	-0.083527	-0.009016	-0.002821	-0.002536	-0.001100
25670	12133236	-9.821010	-0.101878	-0.010067	-0.002113	0.001422	-0.001530
25671	12133261	-9.838295	-0.102419	0.014036	-0.005068	-0.004373	0.000948
25672	12133286	-9.820024	-0.145055	-0.004303	-0.009550	0.000337	0.006497
25673	12133311	-9.828279	-0.098445	0.004394	-0.004391	-0.001793	-0.003974
25674	12133336	-9.822869	-0.078461	0.011490	-0.005129	0.001960	0.001818
25675	12133361	-9.858817	-0.082269	-0.020905	-0.006334	0.001216	-0.002794
25676	12133386	-9.828907	-0.114661	-0.016677	-0.004400	-0.003462	-0.000717
25677	12133411	-9.826654	-0.097298	-0.031128	-0.004339	0.001262	0.000724
25678	12133436	-9.828715	-0.120579	-0.035381	-0.005181	-0.003222	-0.004108
25679	12133461	-9.834645	-0.107985	-0.027262	-0.004871	0.003305	-0.004330
25680	12133486	-9.835190	-0.105185	-0.020086	-0.003856	0.002109	0.002389
25681	12133511	-9.822315	-0.073871	-0.009539	0.000180	-0.002348	-0.000593
25682	12133536	-9.816861	-0.087480	-0.015302	-0.002608	-0.003365	-0.001167
25683	12133561	-9.798026	-0.107650	-0.017835	-0.001666	-0.000706	-0.002120
25684	12133586	-9.822671	-0.112547	-0.026791	-0.005500	-0.001094	-0.003004
25685	12133611	-9.859287	-0.086139	-0.014212	-0.003198	0.001279	-0.001140
25686	12133636	-9.834141	-0.101955	-0.042550	-0.000632	-0.002746	0.002865
25687	12133661	-9.827703	-0.086305	-0.039246	-0.005062	-0.000438	0.000072
25688	12133686	-9.806951	-0.101975	-0.050350	-0.004613	-0.002165	0.004938
25689	12133711	-9.836936	-0.108180	-0.042148	-0.009461	0.003366	0.002737
25690	12133736	-9.829748	-0.078400	-0.030087	0.000259	-0.004672	0.000425
25691	12133761	-9.836519	-0.076303	-0.016185	-0.009264	-0.002897	0.002767
25692	12133786	-9.815770	-0.097364	-0.018696	-0.007764	-0.002094	0.001222
25693	12133811	-9.840112	-0.091034	-0.023838	-0.006877	-0.002158	-0.004613
25694	12133836	-9.832126	-0.093609	-0.001802	-0.002274	-0.003821	-0.002193
25695	12133861	-9.840322	-0.112814	-0.023847	-0.005056	-0.002766	-0.002185
25696	12133886	-9.841770	-0.069512	-0.030095	-0.001810	0.000270	0.001164
25697	12133911	-9.839481	-0.076095	-0.002758	-0.008415	-0.001594	0.000075
25698	12133936	-9.845799	-0.086104	-0.038176	-0.003822	-0.003456	-0.001934
25699	12133961	-9.867519	-0.083216	0.004135	-0.009593	-0.004850	-0.000319
25700	12133986	-9.833556	-0.095594	0.003921	-0.002429	0.001223	-0.001204
25701	12134011	-9.840590	-0.095901	-0.013292	-0.008897	-0.000572	-0.000365
25702	12134036	-9.828985	-0.106524	-0.020074	-0.011742	0.000547	0.001253
25703	12134061	-9.816461	-0.116848	-0.022576	-0.002430	0.005218	-0.004844
25704	12134086	-9.813177	-0.108018	-0.033596	0.000022	0.003015	0.000402
25705	12134111	-9.833527	-0.122723	-0.022878	-0.008304	-0.003409	-0.002307
25706	12134136	-9.813123	-0.126592	-0.002431	-0.007816	0.001317	-0.004272
25707	12134161	-9.804368	-0.104659	-0.000052	-0.006934	-0.000152	-0.000435
25708	12134186	-9.798429	-0.113380	-0.017838	-0.008318	-0.000891	-0.003196
25709	12134211	-9.807656	-0.102139	-0.014472	-0.004320	0.002156	-0.003187
25710	12134236	-9.829342	-0.094737	0.014917	-0.007057	-0.002150	0.000197
25711	12134261	-9.830350	-0.113763	-0.015674	-0.003572	-0.003514	-0.002509
25712	12134286	-9.823298	-0.114359	0.000010	-0.002505	-0.000198	-0.000063
25713	12134311	-9.800090	-0.120502	-0.043672	-0.006646	-0.002785	0.003652
25714	12134336	-9.809457	-0.111280	-0.010597	-0.004685	-0.000574	-0.006475
25715	12134361	-9.840258	-0.122888	-0.012833	-0.010665	0.001089	0.004780
25716	12134386	-9.817523	-0.107794	-0.023388	-0.006403	-0.006925	-0.001690
25717	12134411	-9.827053	-0.106974	-0.022894	-0.002633	-0.004660	-0.002007
25718	12134436	-9.844065	-0.112172	-0.034850	-0.001615	-0.002252	0.000890
25719	12134461	-9.847742	-0.087183	-0.031039	-0.009026	0.003430	-0.000730
25720	12134486	-9.819595	-0.123693	-0.041174	-0.006606	-0.002535	-0.002755
25721	12134511	-9.824419	-0.086388	-0.030183	-0.003824	0.001137	0.000851
25722	12134536	-9.847782	-0.079972	-0.038632	-0.004606	-0.003085	-0.003916
25723	12134561	-9.825820	-0.090363	-0.024399	-0.003883	-0.001392	-0.002307
25724	12134586	-9.817980	-0.104381	-0.033053	-0.003500	-0.001648	-0.004427
25725	12134611	-9.822196	-0.110561	-0.032118	-0.007506	0.001973	-0.000036
25726	12134636	-9.835267	-0.097041	-0.025750	-0.003757	-0.003648	-0.002125
25727	12134661	-9.818767	-0.112734	-0.043116	0.002152	-0.002253	-0.004251
25728	12134686	-9.836620	-0.094486	-0.041067	-0.006729	-0.006866	-0.002714
25729	12134711	-9.840041	-0.091253	-0.036309	-0.003903	-0.000867	-0.001149
25730	12134736	-9.854036	-0.074315	-0.038660	-0.009854	-0.000778	-0.001262
25731	12134761	-9.819674	-0.093284	-0.012485	-0.009426	0.002004	-0.000352
25732	12134786	-9.825116	-0.081606	-0.003327	-0.006640	-0.001238	-0.001982
25733	12134811	-9.807724	-0.101335	-0.003448	-0.011098	0.000229	-0.000554
25734	12134836	-9.840888	-0.087321	0.017813	-0.005695	0.001757	0.000729
25735	12134861	-9.840846	-0.065687	-0.033451	-0.002830	0.002187	0.001112
25736	12134886	-9.822391	-0.102787	-0.015822	-0.006405	0.001277	-0.004342
25737	12134911	-9.827034	-0.111806	-0.017220	-0.007351	0.000876	-0.003374
25738	12134936	-9.825743	-0.075191	0.007754	-0.006747	-0.004156	-0.003853
25739	12134961	-9.842407	-0.093714	-0.032982	-0.002684	0.001283	-0.002812
25740	12134986	-9.824265	-0.101715	-0.022484	-0.004113	-0.000226	-0.000246
25741	12135011	-9.792890	-0.133491	-0.024998	-0.002517	-0.003675	0.004856
25742	12135036	-9.836560	-0.102126	-0.037720	-0.003116	-0.003572	-0.002643
25743	12135061	-9.831011	-0.091202	-0.033034	-0.004104	0.001711	-0.001267
25744	12135086	-9.800296	-0.114300	-0.023547	-0.004047	-0.002825	-0.006680
25745	12135111	-9.839021	-0.097502	-0.033907	-0.002502	-0.002788	-0.003411
25746	12135136	-9.821743	-0.100356	-0.049317	-0.002711	-0.002211	-0.002445
25747	12135161	-9.820718	-0.080295	-0.024444	-0.002249	-0.000259	-0.001538
25748	12135186	-9.825688	-0.099700	-0.027788	-0.004470	-0.000742	0.002697
25749	12135211	-9.835607	-0.098609	-0.044059	0.000885	0.004327	0.002970
25750	12135236	-9.841167	-0.071197	-0.046367	-0.003314	-0.000989	0.000004
25751	12135261	-9.803939	-0.114812	-0.049435	-0.003906	-0.000805	-0.002500
25752	12135286	-9.813082	-0.083626	-0.019129	-0.007027	-0.005320	-0.002001
25753	12135311	-9.830568	-0.098161	-0.012326	-0.006445	-0.005892	-0.004317
25754	12135336	-9.842731	-0.101110	-0.043032	-0.001635	0.000864	0.004239
25755	12135361	-9.854406	-0.094101	-0.016654	-0.005493	0.001174	-0.000367
25756	12135386	-9.831397	-0.103264	-0.022460	-0.010274	0.000171	-0.003627
25757	12135411	-9.841567	-0.089122	-0.022439	-0.003339	-0.002281	-0.000069
25758	12135436	-9.813450	-0.102473	0.000477	-0.003743	-0.000298	-0.006597
25759	12135461	-9.809874	-0.107644	-0.026841	-0.007924	-0.003463	-0.003849
25760	12135486	-9.838528	-0.102788	-0.025263	-0.002944	-0.004536	0.001454
25761	12135511	-9.828542	-0.108650	-0.010944	-0.001089	-0.002897	-0.003728
25762	12135536	-9.855866	-0.096644	-0.006470	-0.004378	-0.004041	-0.000778
25763	12135561	-9.829598	-0.096136	-0.018593	-0.001986	-0.004774	-0.000215
25764	12135586	-9.831494	-0.095633	-0.020014	0.000091	-0.005384	0.001316
25765	12135611	-9.838621	-0.106019	-0.003799	-0.004952	0.004147	-0.003876
25766	12135636	-9.851694	-0.088558	-0.004134	-0.004029	-0.000872	-0.001851
25767	12135661	-9.824596	-0.113130	-0.022925	-0.002611	-0.003371	-0.002708
25768	12135686	-9.813331	-0.101693	-0.019674	-0.008425	-0.001603	-0.003006
25769	12135711	-9.847228	-0.097417	-0.015155	-0.004506	-0.004247	-0.004821
25770	12135736	-9.841029	-0.094318	-0.023375	-0.003971	0.001323	-0.003634
25771	12135761	-9.826033	-0.109766	-0.030138	-0.005315	0.000972	-0.005752
25772	12135786	-9.843020	-0.084325	-0.030550	-0.005579	-0.000651	-0.005442
25773	12135811	-9.833485	-0.087573	-0.024836	-0.001177	-0.000051	-0.002497
25774	12135836	-9.871237	-0.069809	-0.039972	-0.003868	-0.004105	-0.004368
25775	12135861	-9.832925	-0.086361	-0.041162	-0.003096	0.002114	-0.002414
25776	12135886	-9.834063	-0.110129	-0.040219	-0.006633	0.002503	-0.000165
25777	12135911	-9.801285	-0.112893	-0.020686	-0.004098	-0.002816	-0.003733
25778	12135936	-9.819155	-0.085338	-0.036410	-0.002445	-0.000595	-0.003716
25779	12135961	-9.811842	-0.110263	-0.012018	-0.004190	-0.001906	-0.000519
25780	12135986	-9.837240	-0.101652	-0.003272	-0.000811	0.001197	0.002827
25781	12136011	-9.821892	-0.097815	-0.028242	-0.003023	-0.002150	-0.000905
25782	12136036	-9.815401	-0.097657	-0.000039	-0.004715	0.000799	0.001165
25783	12136061	-9.821712	-0.118305	-0.016767	-0.006551	0.000191	0.001872
25784	12136086	-9.837252	-0.088448	-0.028179	-0.004825	0.000609	0.003354
25785	12136111	-9.820593	-0.096135	-0.011035	-0.001553	-0.000183	-0.002119
25786	12136136	-9.840041	-0.106454	-0.004227	-0.008136	0.001903	0.001700
25787	12136161	-9.823429	-0.102484	-0.002362	-0.009964	-0.001492	-0.001459
25788	12136186	-9.810501	-0.095759	-0.027856	-0.003116	0.000824	-0.001146
25789	12136211	-9.845143	-0.100796	-0.036746	-0.002931	-0.003175	-0.000906
25790	12136236	-9.845221	-0.110776	-0.004127	-0.007619	-0.002420	0.002377
25791	12136261	-9.835325	-0.096251	-0.018586	-0.007175	-0.000741	-0.003450
25792	12136286	-9.841005	-0.104105	-0.006553	-0.000076	-0.004753	-0.005089
25793	12136311	-9.840266	-0.119582	-0.019577	-0.005303	0.000776	-0.005952
25794	12136336	-9.830157	-0.095381	-0.008544	-0.007300	-0.002874	-0.003207
25795	12136361	-9.841536	-0.100385	-0.005162	-0.005357	0.002389	-0.005038
25796	12136386	-9.838788	-0.083936	-0.021964	-0.003104	-0.000027	-0.007050
25797	12136411	-9.801549	-0.092916	-0.016802	-0.002865	-0.005178	0.000556
25798	12136436	-9.816467	-0.072556	-0.033544	-0.000973	-0.000565	-0.003143
25799	12136461	-9.847593	-0.096077	-0.035788	-0.001292	-0.002371	0.000699
25800	12136486	-9.820430	-0.107490	-0.017219	-0.004154	0.000666	-0.005305
25801	12136511	-9.850023	-0.065706	-0.012799	-0.007164	0.000739	-0.007670
25802	12136536	-9.851973	-0.097455	-0.018058	-0.006959	-0.001383	-0.003713
25803	12136561	-9.827673	-0.096042	-0.023428	-0.004826	0.000085	-0.001267
25804	12136586	-9.821876	-0.107957	-0.011501	-0.001277	-0.000361	0.004548
25805	12136611	-9.864836	-0.088744	-0.035708	-0.004564	0.001828	-0.004075
25806	12136636	-9.851133	-0.088858	-0.018067	-0.001821	0.002202	-0.002164
25807	12136661	-9.816694	-0.102700	-0.013882	-0.007388	-0.002031	-0.002496
25808	12136686	-9.838848	-0.108331	-0.040119	-0.010221	-0.005965	-0.005841
25809	12136711	-9.837419	-0.113691	-0.026704	-0.007501	-0.004423	-0.000326
25810	12136736	-9.822564	-0.120600	-0.029249	-0.009209	0.000903	-0.004467
25811	12136761	-9.817982	-0.109745	-0.022073	-0.006752	0.002176	-0.001767
25812	12136786	-9.833932	-0.120051	-0.041651	-0.006412	0.001605	-0.000812
25813	12136811	-9.817446	-0.110105	-0.030220	-0.005929	0.000447	-0.001849
25814	12136836	-9.828059	-0.111586	-0.005658	-0.004235	-0.002889	-0.007060
25815	12136861	-9.828226	-0.096820	-0.009078	-0.000013	0.001718	-0.003330
25816	12136886	-9.845400	-0.093112	-0.010449	-0.008473	0.002353	0.000809
25817	12136911	-9.843296	-0.068326	-0.018113	-0.003059	0.001149	0.000656
25818	12136936	-9.829958	-0.101688	-0.025852	-0.004973	0.000991	0.003028
25819	12136961	-9.813256	-0.143236	-0.025418	-0.007808	-0.000478	0.002900
25820	12136986	-9.839349	-0.101991	-0.048282	-0.001383	-0.001864	-0.003211
25821	12137011	-9.833515	-0.085253	-0.023393	-0.006849	-0.000864	-0.002684
25822	12137036	-9.825164	-0.109454	-0.016207	-0.007540	-0.005399	-0.002259
25823	12137061	-9.819996	-0.144054	-0.011970	-0.011498	0.000614	-0.001059
25824	12137086	-9.838676	-0.087464	-0.032542	-0.006363	0.002517	0.000927
25825	12137111	-9.842545	-0.079903	-0.039200	-0.002733	0.000630	-0.002559
25826	12137136	-9.819907	-0.088005	0.014847	-0.002675	0.000958	-0.002621
25827	12137161	-9.843944	-0.088182	-0.025232	-0.006756	-0.003895	-0.003530
25828	12137186	-9.841860	-0.095001	-0.042068	-0.002721	-0.001758	-0.002313
25829	12137211	-9.822149	-0.083700	-0.016228	-0.001216	-0.002040	0.004479
25830	12137236	-9.809070	-0.097745	-0.024468	-0.005990	-0.001755	-0.004104
25831	12137261	-9.820848	-0.116627	-0.006713	-0.010787	0.000429	-0.001901
25832	12137286	-9.810120	-0.091112	-0.021582	-0.010781	-0.001831	-0.000755
25833	12137311	-9.822248	-0.111693	-0.022037	0.000286	0.000294	-0.003406
25834	12137336	-9.832245	-0.068957	-0.031630	-0.012113	0.003956	-0.000781
25835	12137361	-9.807444	-0.109889	-0.030220	-0.010291	-0.003241	0.001353
25836	12137386	-9.813875	-0.097867	-0.017728	0.000721	-0.001369	-0.001299
25837	12137411	-9.810847	-0.099347	-0.041735	-0.005172	-0.001279	-0.001152
25838	12137436	-9.821683	-0.112901	-0.030587	-0.007097	-0.004800	0.002235
25839	12137461	-9.831733	-0.104847	-0.041080	-0.007723	-0.005399	-0.000137
25840	12137486	-9.830620	-0.059756	-0.003267	-0.004329	-0.002670	0.007181
25841	12137511	-9.829224	-0.123600	-0.023903	-0.004630	-0.002179	-0.002120
25842	12137536	-9.850083	-0.104800	-0.000339	-0.006643	0.000884	-0.003767
25843	12137561	-9.844488	-0.080064	-0.031057	-0.003019	0.001533	-0.003509
25844	12137586	-9.813851	-0.103231	-0.009622	-0.007327	0.000229	-0.001779
25845	12137611	-9.838223	-0.088074	-0.025759	-0.003697	-0.001319	-0.002047
25846	12137636	-9.844136	-0.079847	-0.012808	-0.010084	-0.001822	-0.003447
25847	12137661	-9.800196	-0.102903	0.014400	-0.004959	-0.005865	-0.000280
25848	12137686	-9.806440	-0.116669	-0.026436	-0.003698	0.000744	-0.003842
25849	12137711	-9.818840	-0.123668	-0.009034	-0.007157	-0.003316	-0.001216
25850	12137736	-9.815997	-0.139562	-0.053201	-0.006096	-0.000192	-0.000182
25851	12137761	-9.833801	-0.099909	-0.023784	-0.005507	-0.008716	0.000222
25852	12137786	-9.831850	-0.116405	-0.000882	-0.002252	-0.002460	-0.003278
25853	12137811	-9.821242	-0.126212	-0.000920	-0.000755	-0.001138	-0.001417
25854	12137836	-9.806835	-0.123263	-0.025534	0.000271	0.003146	-0.001466
25855	12137861	-9.821093	-0.132690	-0.010984	-0.004964	-0.001340	0.001544
25856	12137886	-9.831417	-0.113063	0.000586	-0.005427	-0.003286	-0.002122
25857	12137911	-9.845215	-0.098545	-0.029557	-0.002043	-0.000772	-0.000259
25858	12137936	-9.828329	-0.129582	-0.002284	-0.007214	-0.005384	0.000438
25859	12137961	-9.852128	-0.087498	-0.013757	-0.005475	0.002395	-0.003563
25860	12137986	-9.820784	-0.113527	-0.023964	-0.005288	0.000525	-0.000179
25861	12138011	-9.826207	-0.106170	-0.007607	-0.004806	-0.002426	0.001603
25862	12138036	-9.794770	-0.115157	0.009508	-0.003845	-0.002748	-0.002962
25863	12138061	-9.820806	-0.110696	-0.024394	-0.005038	-0.001608	-0.003332
25864	12138086	-9.835082	-0.071334	-0.029612	-0.002918	-0.001235	0.002693
25865	12138111	-9.824059	-0.108565	-0.042165	-0.005546	0.000452	-0.003967
25866	12138136	-9.836281	-0.093790	-0.021951	-0.005183	-0.000824	-0.000826
25867	12138161	-9.828215	-0.096288	-0.012909	-0.008525	0.001298	-0.005937
25868	12138186	-9.837562	-0.102256	-0.027689	-0.004020	-0.001130	-0.001405
25869	12138211	-9.831935	-0.089188	-0.040680	-0.006233	-0.001751	0.000900
25870	12138236	-9.848724	-0.081921	-0.037732	-0.001316	0.000329	-0.004613
25871	12138261	-9.827423	-0.115473	-0.024888	-0.011933	0.000219	0.000159
25872	12138286	-9.824924	-0.098790	-0.000448	-0.004007	-0.001718	-0.004682
25873	12138311	-9.848480	-0.098430	-0.042457	-0.000834	-0.003150	-0.005272
25874	12138336	-9.823698	-0.112250	-0.015788	-0.005339	-0.001796	-0.000578
25875	12138361	-9.816342	-0.084947	-0.027738	-0.008200	-0.006956	-0.002646
25876	12138386	-9.815054	-0.109028	-0.034050	-0.008065	0.001054	-0.003885
25877	12138411	-9.857882	-0.083282	-0.016095	-0.005765	-0.000712	-0.003001
25878	12138436	-9.814161	-0.096391	-0.051290	-0.003636	-0.001256	-0.001410
25879	12138461	-9.838104	-0.098523	-0.023891	-0.010575	0.002119	0.001322
25880	12138486	-9.845634	-0.108160	-0.018046	-0.009391	-0.003091	0.002828
25881	12138511	-9.830534	-0.102000	-0.009981	-0.007693	-0.000422	-0.001904
25882	12138536	-9.829515	-0.105694	-0.014329	-0.004873	-0.000300	-0.000122
25883	12138561	-9.827858	-0.083843	-0.015754	-0.006030	-0.002199	-0.000127
25884	12138586	-9.837558	-0.112940	-0.008017	-0.007409	-0.002991	0.003080
25885	12138611	-9.832390	-0.104772	-0.011431	-0.008914	0.000341	0.003427
25886	12138636	-9.821451	-0.109620	-0.000477	-0.004463	0.000669	-0.001268
25887	12138661	-9.830141	-0.088496	-0.024933	-0.009640	0.004777	-0.002003
25888	12138686	-9.850245	-0.083597	-0.017105	0.000335	0.003077	-0.001524
25889	12138711	-9.840643	-0.077448	-0.043042	0.000165	0.000292	-0.002569
25890	12138736	-9.832991	-0.089952	-0.020538	-0.006157	-0.002323	0.000833
25891	12138761	-9.827185	-0.100929	-0.013809	-0.003542	-0.004221	-0.001490
25892	12138786	-9.827690	-0.098103	-0.015274	-0.005002	-0.000635	-0.003387
25893	12138811	-9.830141	-0.094369	-0.012885	-0.003256	0.000882	-0.002807
25894	12138836	-9.818583	-0.100775	-0.020153	-0.003941	0.002418	-0.003955
25895	12138861	-9.793995	-0.122203	-0.023580	-0.004770	-0.001985	-0.003468
25896	12138886	-9.850097	-0.092023	-0.026681	-0.004253	0.000027	-0.003128
25897	12138911	-9.818043	-0.103433	-0.024473	-0.006233	0.000393	0.004566
25898	12138936	-9.839410	-0.112452	-0.016630	-0.003339	-0.002222	-0.000066
25899	12138961	-9.806307	-0.126013	-0.026840	-0.007804	-0.004478	0.005955
25900	12138986	-9.845013	-0.082540	-0.017117	-0.010565	-0.000142	0.002915
25901	12139011	-9.838337	-0.082008	-0.020988	-0.003602	-0.000221	-0.001150
25902	12139036	-9.845326	-0.078295	-0.054976	-0.001849	-0.003304	-0.006488
25903	12139061	-9.812439	-0.090942	-0.032610	0.001539	-0.002906	-0.001115
25904	12139086	-9.836185	-0.094542	-0.032945	-0.006962	-0.002918	0.002760
25905	12139111	-9.844732	-0.090162	-0.048734	-0.003979	-0.000219	-0.000179
25906	12139136	-9.846870	-0.081106	-0.028122	-0.008090	-0.002241	-0.004928
25907	12139161	-9.853016	-0.092713	-0.014166	-0.010641	-0.004543	-0.003329
25908	12139186	-9.833209	-0.107936	-0.027707	-0.007103	-0.001192	-0.003833
25909	12139211	-9.840554	-0.098758	-0.013307	-0.004469	-0.000885	-0.001411
25910	12139236	-9.835933	-0.112059	-0.041608	-0.008473	0.001755	-0.003752
25911	12139261	-9.824578	-0.118472	-0.014826	-0.004669	-0.000952	-0.003460
25912	12139286	-9.831995	-0.107472	0.004887	-0.005807	-0.001489	-0.002624
25913	12139311	-9.815007	-0.116202	-0.027351	-0.011510	-0.000934	0.000340
25914	12139336	-9.841389	-0.099911	-0.032517	-0.009188	0.004396	-0.001813
25915	12139361	-9.826410	-0.105018	-0.055996	-0.005156	-0.001863	-0.002497
25916	12139386	-9.824503	-0.117271	-0.029646	-0.004753	-0.004245	-0.000206
25917	12139411	-9.828604	-0.087164	-0.045009	-0.002624	-0.000457	0.001028
25918	12139436	-9.842314	-0.100305	-0.033855	-0.002967	-0.005625	0.004722
25919	12139461	-9.842658	-0.112242	-0.031958	-0.004819	-0.002305	-0.001475
25920	12139486	-9.835194	-0.106187	-0.018609	0.000376	-0.000475	-0.002955
25921	12139511	-9.839122	-0.089964	-0.031452	-0.011221	-0.004758	-0.006922
25922	12139536	-9.839485	-0.121706	-0.063135	-0.011176	-0.001781	-0.003447
25923	12139561	-9.835540	-0.072833	-0.031084	-0.005636	-0.000778	-0.005189
25924	12139586	-9.854650	-0.073202	-0.019447	-0.002421	-0.003240	-0.002955
25925	12139611	-9.831447	-0.084353	-0.050738	-0.000551	-0.001591	-0.002703
25926	12139636	-9.835350	-0.083584	-0.036308	-0.001231	-0.004503	-0.001237
25927	12139661	-9.824318	-0.086181	-0.045918	-0.005229	-0.005676	-0.002392
25928	12139686	-9.827394	-0.097991	0.013489	-0.002636	-0.002006	0.002621
25929	12139711	-9.837633	-0.094121	-0.033482	-0.003099	0.000304	0.000004
25930	12139736	-9.812252	-0.116988	-0.008602	-0.004338	-0.003405	-0.002769
25931	12139761	-9.833658	-0.123966	-0.001248	-0.001419	-0.006706	-0.001954
25932	12139786	-9.826062	-0.120114	-0.003255	-0.004688	-0.004640	-0.004056
25933	12139811	-9.801971	-0.137109	-0.014935	-0.003259	-0.000852	-0.000516
25934	12139836	-9.849119	-0.101750	-0.008924	-0.004984	-0.002891	-0.000194
25935	12139861	-9.798855	-0.126426	-0.000077	-0.007696	-0.002296	-0.001664
25936	12139886	-9.859133	-0.109774	0.009317	-0.009459	-0.001356	-0.002669
25937	12139911	-9.849010	-0.108364	-0.013255	-0.005074	-0.000574	-0.005439
25938	12139936	-9.848147	-0.096307	-0.022397	-0.006451	0.001031	-0.000168
25939	12139961	-9.840096	-0.099747	-0.008019	-0.003937	-0.001641	0.000520
25940	12139986	-9.833467	-0.127419	-0.023893	-0.007126	-0.000209	-0.001329
25941	12140011	-9.821807	-0.119114	-0.001966	-0.007553	0.005201	-0.004119
25942	12140036	-9.813087	-0.125006	-0.012511	-0.009449	0.002325	-0.003551
25943	12140061	-9.829752	-0.111003	-0.042147	-0.003332	0.001203	-0.003704
25944	12140086	-9.828596	-0.097488	-0.025329	-0.004937	-0.000891	-0.003576
25945	12140111	-9.827291	-0.087996	-0.023981	-0.002104	0.002974	-0.002030
25946	12140136	-9.827196	-0.090662	-0.033984	-0.005758	0.001293	-0.000164
25947	12140161	-9.845227	-0.101987	-0.021411	-0.006869	-0.000273	-0.001833
25948	12140186	-9.830070	-0.115538	-0.056423	-0.007662	-0.005852	-0.002959
25949	12140211	-9.845942	-0.072269	-0.042028	-0.002833	-0.002396	-0.001156
25950	12140236	-9.832085	-0.125568	-0.018624	-0.003220	-0.000139	0.000522
25951	12140261	-9.814358	-0.095922	-0.019659	-0.004922	-0.000948	0.000203
25952	12140286	-9.835547	-0.070400	-0.032945	-0.009413	-0.002906	-0.002490
25953	12140311	-9.823781	-0.104627	-0.016251	-0.006296	-0.004070	0.001793
25954	12140336	-9.824377	-0.087821	-0.033048	-0.007749	-0.000678	-0.001457
25955	12140361	-9.840340	-0.109426	-0.028660	-0.004700	0.000021	-0.002101
25956	12140386	-9.834188	-0.102609	-0.034398	-0.006628	-0.003949	-0.001474
25957	12140411	-9.835334	-0.089870	-0.026233	-0.003992	-0.003634	0.004932
25958	12140436	-9.836738	-0.087934	-0.036337	-0.005962	-0.000717	-0.004347
25959	12140461	-9.829086	-0.092140	-0.032085	-0.001900	0.000720	-0.000118
25960	12140486	-9.818506	-0.116204	-0.000496	-0.004418	0.001454	-0.000429
25961	12140511	-9.837330	-0.084267	-0.024821	-0.002104	-0.000902	0.000326
25962	12140536	-9.811295	-0.113479	-0.017772	-0.003059	-0.001113	0.000577
25963	12140561	-9.820641	-0.093374	-0.009555	-0.002848	-0.003892	-0.002317
25964	12140586	-9.837238	-0.097293	-0.014287	-0.004381	0.001633	-0.006066
25965	12140611	-9.832269	-0.106479	-0.029666	-0.004427	-0.000493	-0.001532
25966	12140636	-9.846316	-0.096524	-0.011294	-0.002611	-0.005631	-0.004378
25967	12140661	-9.829741	-0.118308	-0.028733	0.001068	0.001866	-0.002111
25968	12140686	-9.841824	-0.106142	-0.024827	-0.002788	0.002711	0.002013
25969	12140711	-9.841192	-0.114543	-0.033437	-0.003205	0.001602	-0.000042
25970	12140736	-9.832823	-0.110084	-0.007601	-0.003405	-0.000212	0.001681
25971	12140761	-9.855406	-0.087926	-0.020870	-0.006647	-0.005507	-0.003533
25972	12140786	-9.837435	-0.113744	-0.024342	-0.006449	-0.001563	-0.003898
25973	12140811	-9.829182	-0.096769	-0.009055	-0.003712	-0.000735	-0.001724
25974	12140836	-9.819407	-0.111711	-0.019193	-0.007680	0.001128	-0.001957
25975	12140861	-9.845961	-0.083587	-0.017618	-0.001502	0.002138	-0.002801
25976	12140886	-9.843999	-0.083898	-0.026197	-0.003284	-0.002411	-0.003080
25977	12140911	-9.843248	-0.098342	-0.041072	-0.009333	-0.003287	-0.000760
25978	12140936	-9.844254	-0.116122	0.002539	-0.008276	-0.000560	-0.003886
25979	12140961	-9.818855	-0.120911	-0.011024	-0.002532	-0.000146	-0.007884
25980	12140986	-9.829206	-0.090479	-0.019090	-0.009081	-0.003289	-0.002874
25981	12141011	-9.840006	-0.105862	-0.010948	-0.009304	0.000075	-0.000425
25982	12141036	-9.844155	-0.116300	-0.011828	-0.008723	0.000219	0.002660
25983	12141061	-9.834867	-0.107051	0.006342	-0.010252	-0.000595	-0.001509
25984	12141086	-9.837638	-0.141427	-0.014255	-0.002423	-0.003301	-0.002317
25985	12141111	-9.842467	-0.123531	-0.039167	-0.003015	-0.000724	-0.001983
25986	12141136	-9.832023	-0.088022	-0.027692	-0.009397	-0.001553	-0.003825
25987	12141161	-9.833735	-0.108550	-0.017641	-0.005133	-0.002567	-0.002114
25988	12141186	-9.821503	-0.102419	-0.006728	0.000052	0.003594	-0.003181
25989	12141211	-9.822935	-0.090165	-0.030637	-0.002435	-0.002907	-0.001739
25990	12141236	-9.820432	-0.092282	-0.046456	-0.002003	-0.000252	-0.000566
25991	12141261	-9.830926	-0.113056	-0.001373	-0.003906	-0.000937	-0.002816
25992	12141286	-9.823763	-0.111418	-0.007135	-0.007617	-0.003000	-0.000957
25993	12141311	-9.824306	-0.095977	-0.026768	-0.004722	-0.003469	-0.001284
25994	12141336	-9.859273	-0.093533	-0.002158	-0.006296	-0.002930	-0.010702
25995	12141361	-9.824032	-0.117268	-0.028217	-0.004028	-0.003190	-0.000067
25996	12141386	-9.798640	-0.092738	-0.026503	-0.007831	0.002235	0.001957
25997	12141411	-9.846771	-0.097358	-0.013303	-0.007778	0.002556	0.001453
25998	12141436	-9.840918	-0.073217	-0.004203	-0.004475	-0.000481	0.003670
25999	12141461	-9.848171	-0.092931	-0.026677	-0.003693	0.000624	-0.000556
26000	12141486	-9.844814	-0.107550	-0.001260	-0.005142	-0.006515	-0.003865
26001	12141511	-9.839754	-0.087406	-0.011860	-0.002721	-0.000076	-0.003962
26002	12141536	-9.820575	-0.096599	-0.013365	-0.003132	-0.003114	-0.001864
26003	12141561	-9.817052	-0.105370	-0.027835	-0.004308	0.001645	-0.002734
26004	12141586	-9.821283	-0.109205	-0.027771	-0.003086	-0.000465	-0.001340
26005	12141611	-9.823495	-0.123941	-0.024824	-0.007482	-0.005254	0.000763
26006	12141636	-9.832041	-0.092419	-0.018205	-0.003533	0.003657	-0.003240
26007	12141661	-9.834206	-0.065178	-0.030136	-0.004010	0.000682	0.000209
26008	12141686	-9.853083	-0.070943	-0.045794	-0.006971	-0.005391	-0.003470
26009	12141711	-9.816122	-0.095603	-0.044610	-0.004123	0.000028	-0.002812
26010	12141736	-9.841072	-0.091033	-0.020478	-0.008027	-0.001843	0.000529
26011	12141761	-9.828365	-0.070652	-0.039213	-0.008634	-0.003019	0.000843
26012	12141786	-9.849827	-0.073530	-0.027617	-0.005840	-0.004785	-0.004943
26013	12141811	-9.844470	-0.090260	-0.013721	-0.004010	-0.003649	-0.002438
26014	12141836	-9.849585	-0.084100	-0.045328	-0.004439	-0.004430	-0.002122
26015	12141861	-9.847652	-0.091825	-0.033398	-0.005689	-0.000699	0.002970
26016	12141886	-9.854007	-0.087938	-0.016615	0.000219	0.000633	0.000842
26017	12141911	-9.829378	-0.080165	-0.011432	-0.005189	-0.002961	-0.003529
26018	12141936	-9.818435	-0.117985	-0.009586	-0.004424	-0.000490	-0.001855
26019	12141961	-9.807974	-0.116884	-0.008708	-0.003941	0.000428	-0.001207
26020	12141986	-9.836782	-0.133752	-0.012356	-0.008726	0.000350	0.004391
26021	12142011	-9.839516	-0.096561	-0.032990	-0.004768	0.000146	-0.003451
26022	12142036	-9.846835	-0.110089	-0.053968	-0.005715	-0.002646	-0.003393
26023	12142061	-9.836876	-0.077966	-0.033957	-0.005367	0.001180	0.002524
26024	12142086	-9.831141	-0.128029	-0.013295	-0.008620	-0.003859	-0.002624
26025	12142111	-9.813766	-0.117676	0.005288	-0.006655	-0.001115	-0.003320
26026	12142136	-9.807865	-0.090462	-0.003881	-0.006424	-0.000535	-0.006081
26027	12142161	-9.808195	-0.092016	-0.022626	-0.007635	0.002109	-0.000420
26028	12142186	-9.828548	-0.106169	-0.015262	-0.003383	-0.001381	-0.004421
26029	12142211	-9.819567	-0.099349	-0.015792	-0.001651	-0.003080	0.002174
26030	12142236	-9.859985	-0.101196	-0.021825	-0.007653	-0.001378	0.001945
26031	12142261	-9.847122	-0.099026	-0.030493	0.000079	-0.000983	0.001729
26032	12142286	-9.850985	-0.098743	-0.021919	-0.002906	0.000051	-0.002491
26033	12142311	-9.835255	-0.094609	-0.031548	-0.001381	0.000210	-0.001654
26034	12142336	-9.819955	-0.096221	-0.038346	-0.005811	0.000516	-0.002991
26035	12142361	-9.834063	-0.071685	-0.040206	-0.008464	0.001504	-0.002655
26036	12142386	-9.799868	-0.106990	-0.029833	-0.000894	0.003450	-0.000943
26037	12142411	-9.819698	-0.091841	-0.012018	0.000757	-0.000405	-0.001793
26038	12142436	-9.823579	-0.120756	-0.017652	-0.005016	-0.004309	-0.000392
26039	12142461	-9.811610	-0.097148	0.000456	-0.003950	-0.001383	-0.001149
26040	12142486	-9.860581	-0.097579	-0.013154	-0.006396	-0.005177	-0.002185
26041	12142511	-9.847230	-0.102246	-0.005637	-0.008647	-0.000624	-0.000747
26042	12142536	-9.792524	-0.137717	0.000847	-0.002383	-0.000066	0.000970
26043	12142561	-9.830051	-0.105378	-0.004241	-0.005293	-0.001149	0.000589
26044	12142586	-9.812901	-0.131901	-0.029295	-0.011125	0.000548	-0.004715
26045	12142611	-9.785824	-0.133170	-0.016011	-0.011489	0.001834	-0.004962
26046	12142636	-9.787546	-0.102136	-0.029854	-0.004478	0.000857	-0.003318
26047	12142661	-9.849231	-0.093311	-0.006552	-0.000183	-0.003330	-0.004822
26048	12142686	-9.849590	-0.095348	-0.021380	-0.000887	-0.002937	0.002243
26049	12142711	-9.846276	-0.097799	-0.013715	-0.000897	-0.004622	0.002417
26050	12142736	-9.841996	-0.091451	-0.023791	-0.007524	-0.003575	0.001928
26051	12142761	-9.825115	-0.111270	-0.020592	0.000863	0.000182	-0.003652
26052	12142786	-9.824096	-0.105217	-0.044113	-0.003915	0.001387	-0.004025
26053	12142811	-9.812617	-0.113722	-0.034551	-0.003685	0.000365	-0.001083
26054	12142836	-9.819132	-0.095548	-0.018676	-0.003761	-0.001644	-0.002752
26055	12142861	-9.830504	-0.120793	-0.053064	-0.007419	-0.005265	-0.001673
26056	12142886	-9.826106	-0.095190	-0.046892	-0.004682	-0.002691	-0.001283
26057	12142911	-9.832680	-0.110213	-0.030540	-0.002183	-0.004449	0.001526
26058	12142936	-9.839231	-0.113872	-0.043492	-0.004557	-0.002290	0.001799
26059	12142961	-9.817408	-0.106057	-0.045483	-0.003590	-0.005196	-0.003998
26060	12142986	-9.829008	-0.091883	-0.046395	-0.004876	-0.004692	0.000121
26061	12143011	-9.833072	-0.113547	-0.037290	-0.000532	-0.002623	-0.005597
26062	12143036	-9.821808	-0.098040	-0.043098	-0.001319	-0.001793	-0.001544
26063	12143061	-9.826321	-0.119484	-0.040179	-0.003195	-0.001048	-0.000760
26064	12143086	-9.823906	-0.121366	-0.042180	-0.005031	0.002277	-0.001194
26065	12143111	-9.822458	-0.097993	-0.015337	-0.003536	0.001921	-0.000873
26066	12143136	-9.825031	-0.118413	-0.021087	-0.004575	0.001822	-0.006649
26067	12143161	-9.826933	-0.108161	-0.041699	-0.001517	0.002395	-0.003512
26068	12143186	-9.822433	-0.116816	-0.057487	-0.000069	-0.002997	-0.003287
26069	12143211	-9.816730	-0.095941	-0.020077	-0.001955	-0.005999	-0.001051
26070	12143236	-9.816569	-0.107765	-0.023512	-0.009656	0.001033	-0.000742
26071	12143261	-9.834290	-0.102879	-0.017224	-0.004038	0.003521	-0.000288
26072	12143286	-9.819656	-0.124342	-0.029685	-0.009450	-0.003938	-0.001985
26073	12143311	-9.846848	-0.120839	-0.030013	-0.006275	-0.002909	0.000133
26074	12143336	-9.829299	-0.115500	-0.029651	-0.005585	-0.002846	-0.006481
26075	12143361	-9.840595	-0.092498	-0.019067	-0.005393	-0.000316	-0.002807
26076	12143386	-9.822355	-0.105640	-0.016306	-0.003737	-0.000095	-0.004224
26077	12143411	-9.799457	-0.115963	-0.000539	-0.004871	-0.002885	-0.001797
26078	12143436	-9.819500	-0.101192	-0.026320	-0.002895	-0.000797	-0.005890
26079	12143461	-9.842746	-0.100754	-0.041006	-0.002365	-0.005433	-0.004064
26080	12143486	-9.820658	-0.094328	-0.003825	-0.006081	-0.002776	0.001797
26081	12143511	-9.835905	-0.092123	-0.007075	-0.007086	-0.003701	-0.002111
26082	12143536	-9.847927	-0.120210	-0.009894	-0.003305	-0.001498	0.001222
26083	12143561	-9.825401	-0.136725	0.000544	-0.006744	-0.000404	-0.003313
26084	12143586	-9.852030	-0.074470	-0.054474	-0.004387	-0.001186	0.004819
26085	12143611	-9.863000	-0.092377	-0.016534	-0.002752	-0.001244	-0.004928
26086	12143636	-9.837848	-0.084904	-0.018091	-0.007817	-0.002685	-0.002554
26087	12143661	-9.834063	-0.090288	-0.001355	-0.007172	-0.000730	-0.000685
26088	12143686	-9.845490	-0.085026	-0.012323	-0.003242	-0.001369	0.000709
26089	12143711	-9.841256	-0.123583	-0.004241	-0.007790	0.004616	-0.003091
26090	12143736	-9.827328	-0.102760	0.013405	-0.006999	0.004053	0.000681
26091	12143761	-9.823632	-0.105706	-0.040188	-0.003308	-0.003575	-0.001355
26092	12143786	-9.847736	-0.088161	-0.029122	-0.008798	0.002080	-0.000986
26093	12143811	-9.834396	-0.094833	-0.015679	-0.004295	-0.002360	0.001609
26094	12143836	-9.827452	-0.102847	-0.043561	-0.005515	-0.000705	-0.003131
26095	12143861	-9.822244	-0.106788	-0.031569	-0.006497	-0.004083	-0.002696
26096	12143886	-9.823788	-0.115377	0.003872	-0.012706	-0.001989	-0.001706
26097	12143911	-9.845281	-0.097705	-0.022915	-0.006527	0.003220	-0.002462
26098	12143936	-9.838586	-0.098577	-0.024299	-0.003900	-0.003265	-0.004235
26099	12143961	-9.859049	-0.093872	-0.035199	-0.001062	-0.003530	0.000437
26100	12143986	-9.820902	-0.108437	-0.013319	-0.008707	-0.004828	0.001281
26101	12144011	-9.834778	-0.104886	-0.011841	-0.006315	-0.003563	-0.002180
26102	12144036	-9.843344	-0.103949	-0.014208	-0.005081	-0.002047	-0.000440
26103	12144061	-9.828358	-0.092754	0.003384	-0.007986	0.002410	-0.006181
26104	12144086	-9.806572	-0.117958	-0.001972	-0.004235	-0.003010	-0.005843
26105	12144111	-9.822077	-0.119064	-0.034069	-0.000358	0.004558	-0.000870
26106	12144136	-9.849811	-0.076377	-0.025240	-0.002074	-0.001808	0.000255
26107	12144161	-9.799284	-0.092723	0.002284	-0.002086	0.000656	0.000392
26108	12144186	-9.844006	-0.089746	-0.012794	-0.002779	0.000317	0.000978
26109	12144211	-9.812575	-0.094333	-0.002879	-0.006226	-0.002466	-0.003010
26110	12144236	-9.819550	-0.109109	-0.000963	-0.003220	-0.000146	-0.002046
26111	12144261	-9.845913	-0.088340	-0.016180	-0.008194	0.001253	-0.001955
26112	12144286	-9.842115	-0.085356	-0.018579	-0.008051	-0.001256	0.001109
26113	12144311	-9.839839	-0.121613	-0.005635	-0.005199	0.000015	0.001365
26114	12144336	-9.817755	-0.098091	-0.004338	-0.006299	0.002326	-0.000480
26115	12144361	-9.809237	-0.119496	-0.030203	-0.004432	-0.002435	-0.002246
26116	12144386	-9.851140	-0.093305	-0.006560	-0.002900	0.001800	-0.002414
26117	12144411	-9.842038	-0.089610	-0.021874	-0.006109	-0.004202	-0.001733
26118	12144436	-9.818286	-0.090888	-0.009592	0.001286	-0.000907	0.001085
26119	12144461	-9.840173	-0.096524	-0.001801	-0.007738	-0.001000	-0.000751
26120	12144486	-9.808695	-0.121192	-0.037930	-0.000131	0.001594	0.000072
26121	12144511	-9.814471	-0.087935	-0.016768	-0.004241	-0.002426	-0.001733
26122	12144536	-9.831582	-0.095934	-0.006180	-0.007483	0.000609	-0.006063
26123	12144561	-9.802519	-0.127094	-0.023044	-0.001763	-0.002193	-0.003853
26124	12144586	-9.843534	-0.118897	-0.030548	-0.003378	-0.001241	-0.000380
26125	12144611	-9.832261	-0.110884	-0.021928	-0.005877	-0.003494	-0.004423
26126	12144636	-9.825593	-0.107823	-0.027263	-0.004169	-0.002491	0.000063
26127	12144661	-9.845221	-0.110769	-0.005609	-0.006521	-0.001043	-0.001206
26128	12144686	-9.849691	-0.087311	-0.020896	-0.011815	-0.003326	0.003034
26129	12144711	-9.818536	-0.104013	-0.021602	-0.005333	0.001955	0.000344
26130	12144736	-9.831212	-0.079075	-0.022980	-0.007948	0.003447	-0.005022
