// General information: 
//  MT Manager version: 2022.0.0 
//  XDA version: 2022.0.0 build 7085 rev 119802 built on 2022-11-08
// Device information: 
//  DeviceId: 037004D1
//  ProductCode: MTi-300-2A5G4
//  Firmware Version: 1.4.1
//  Hardware Version: 2.1.0
// Device settings: 
//  Filter Profile: general(39.16)
//  Option Flags: Orientation Smoother Disabled, Position/Velocity Smoother Disabled, Continuous Zero Rotation Update Disabled, AHS Disabled, ICC Disabled
// Coordinate system: ENU
PacketCounter	SampleTimeFine	Acc_X	Acc_Y	Acc_Z	Gyr_X	Gyr_Y	Gyr_Z
61809	11398311	-0.006055	0.089996	9.791364	-0.007817	0.001597	-0.005797
61810	11398336	-0.015487	0.073883	9.813954	-0.006442	0.002722	-0.003737
61811	11398361	-0.056170	0.106051	9.790171	-0.001839	-0.000808	0.000021
61812	11398386	-0.030931	0.102808	9.802027	-0.005741	-0.003070	-0.000432
61813	11398411	-0.025386	0.087872	9.788580	-0.006922	-0.006585	-0.002886
61814	11398436	-0.034585	0.082677	9.812595	-0.006334	-0.002828	-0.003059
61815	11398461	-0.035497	0.077342	9.817393	-0.006619	-0.003535	0.001620
61816	11398486	-0.025558	0.081696	9.820225	-0.006238	-0.001727	-0.002156
61817	11398511	-0.030167	0.077109	9.806813	-0.007109	-0.002386	-0.000748
61818	11398536	-0.032436	0.065174	9.812582	-0.004512	-0.003439	0.000392
61819	11398561	-0.022278	0.050622	9.810156	-0.001945	-0.003713	0.001149
61820	11398586	-0.017666	0.064550	9.801014	-0.006869	0.001875	-0.004767
61821	11398611	-0.018175	0.069920	9.796220	-0.003232	0.000255	-0.006196
61822	11398636	-0.016038	0.087383	9.797652	-0.007699	0.002652	0.003318
61823	11398661	-0.034588	0.086532	9.806843	-0.008322	-0.002733	-0.003245
61824	11398686	-0.038377	0.083381	9.798242	-0.004147	0.001352	-0.000034
61825	11398711	-0.036239	0.090523	9.830350	-0.000139	-0.000596	-0.007880
61826	11398736	-0.039836	0.082303	9.804005	-0.003372	0.002979	-0.002202
61827	11398761	-0.013268	0.065904	9.780389	-0.003947	0.002640	-0.003807
61828	11398786	-0.024673	0.097328	9.793838	-0.005619	-0.001134	-0.002798
61829	11398811	-0.007538	0.091117	9.811987	-0.004645	-0.001308	-0.000174
61830	11398836	-0.026852	0.081476	9.802975	-0.004534	-0.005122	-0.002375
61831	11398861	-0.027169	0.111180	9.786190	-0.005411	-0.001122	0.003295
61832	11398886	0.005998	0.083539	9.791305	-0.004010	-0.001037	0.001620
61833	11398911	-0.017913	0.095159	9.787579	-0.002666	-0.002815	0.004111
61834	11398936	-0.027286	0.104509	9.815439	-0.009774	0.000922	-0.000466
61835	11398961	-0.013008	0.077795	9.806259	-0.007100	-0.003104	-0.004345
61836	11398986	-0.019702	0.109914	9.813478	-0.006656	-0.000642	-0.003628
61837	11399011	-0.022356	0.089950	9.813489	-0.004326	0.000627	-0.004208
61838	11399036	-0.012005	0.065061	9.806258	-0.005001	0.003918	-0.001232
61839	11399061	-0.020893	0.087674	9.809174	-0.004570	0.002509	0.001000
61840	11399086	-0.016842	0.084687	9.792858	0.000255	-0.002517	-0.001031
61841	11399111	-0.015507	0.051904	9.795260	0.000969	-0.002760	0.000377
61842	11399136	-0.038471	0.097074	9.799666	-0.006750	-0.003800	-0.001331
61843	11399161	-0.024063	0.082501	9.803910	-0.003542	-0.001672	0.001618
61844	11399186	-0.018905	0.090584	9.806277	-0.005947	-0.003017	-0.003195
61845	11399211	-0.026099	0.092018	9.800571	-0.001664	0.001325	-0.004588
61846	11399236	-0.019825	0.051785	9.799110	-0.003873	-0.001949	-0.004669
61847	11399261	-0.024275	0.058703	9.811592	-0.002265	-0.001791	-0.002231
61848	11399286	-0.023916	0.067806	9.799135	-0.005597	0.004749	0.002044
61849	11399311	-0.024719	0.065117	9.794336	-0.001967	-0.001466	-0.006406
61850	11399336	-0.022870	0.059645	9.807279	-0.007081	0.000717	-0.002083
61851	11399361	-0.015450	0.082051	9.808667	-0.004390	-0.003633	-0.002491
61852	11399386	-0.047163	0.061230	9.810258	-0.003202	-0.002773	-0.003967
61853	11399411	-0.026866	0.074795	9.807767	-0.007421	-0.000642	-0.000291
61854	11399436	-0.031582	0.070942	9.805395	-0.005351	0.001144	0.003627
61855	11399461	-0.025487	0.084855	9.802969	-0.004797	-0.002402	0.003476
61856	11399486	-0.041319	0.111246	9.771879	-0.003654	-0.006261	0.002238
61857	11399511	-0.039815	0.091953	9.789146	-0.005782	-0.000045	-0.002594
61858	11399536	-0.025015	0.089274	9.791936	-0.004706	-0.001507	-0.000490
61859	11399561	-0.034775	0.099751	9.811625	-0.008862	-0.003843	-0.002290
61860	11399586	-0.028504	0.096303	9.796275	-0.004634	0.002436	-0.002205
61861	11399611	-0.043758	0.097015	9.802092	0.000346	-0.001417	-0.004038
61862	11399636	-0.029560	0.098389	9.814013	-0.003166	-0.001083	0.003292
61863	11399661	-0.028871	0.089139	9.798665	-0.004140	-0.000778	0.002012
61864	11399686	-0.036128	0.100512	9.795340	-0.003156	-0.001600	0.001812
61865	11399711	-0.013859	0.075243	9.792364	-0.000814	-0.005312	-0.000912
61866	11399736	-0.019183	0.074523	9.801014	-0.004153	-0.002320	0.004694
61867	11399761	-0.050084	0.102523	9.803565	-0.006919	0.001885	0.001006
61868	11399786	-0.029400	0.094817	9.795798	-0.008851	-0.000161	-0.002140
61869	11399811	-0.023338	0.071864	9.783299	-0.009817	0.000350	0.000173
61870	11399836	-0.017864	0.091851	9.789986	-0.001441	-0.003386	0.000131
61871	11399861	0.005151	0.084528	9.849782	-0.005206	0.000688	0.001889
61872	11399886	-0.025636	0.100136	9.792890	-0.006337	-0.002179	0.001176
61873	11399911	-0.029728	0.070837	9.813542	-0.009607	0.001833	-0.000721
61874	11399936	-0.016586	0.091015	9.804359	-0.010520	0.000395	-0.001372
61875	11399961	-0.027383	0.084022	9.801537	0.002810	-0.002411	-0.002250
61876	11399986	-0.030617	0.072417	9.804429	-0.005692	-0.000553	-0.000040
61877	11400011	-0.034916	0.067901	9.817881	-0.003424	-0.001742	-0.003839
61878	11400036	-0.036907	0.062890	9.830358	-0.009392	0.003126	-0.001161
61879	11400061	-0.045767	0.095758	9.818893	-0.001796	-0.000422	-0.003448
61880	11400086	-0.027590	0.086865	9.824063	-0.005952	-0.000298	-0.000037
61881	11400111	-0.024560	0.091149	9.791453	-0.007747	-0.002329	0.000341
61882	11400136	-0.034560	0.079799	9.814991	-0.005338	-0.001650	-0.000812
61883	11400161	-0.036666	0.094405	9.819312	-0.007850	-0.001633	-0.005679
61884	11400186	-0.027523	0.083268	9.814954	-0.001910	0.001320	-0.002991
61885	11400211	-0.033943	0.110411	9.804445	0.001940	-0.001064	-0.001469
61886	11400236	-0.030407	0.094362	9.800106	-0.001836	0.000799	-0.005235
61887	11400261	-0.058323	0.079011	9.817036	-0.006822	-0.003676	-0.002737
61888	11400286	-0.025114	0.087606	9.807749	-0.004655	-0.002787	0.002770
61889	11400311	-0.019226	0.080588	9.806283	-0.005960	-0.006172	0.001730
61890	11400336	-0.016081	0.091494	9.811534	-0.006263	-0.002958	-0.003320
61891	11400361	0.002326	0.074445	9.793242	-0.004444	-0.003955	-0.002690
61892	11400386	-0.023660	0.075349	9.832187	-0.008133	-0.002082	0.000153
61893	11400411	-0.035187	0.088890	9.807815	-0.007969	0.004704	-0.000773
61894	11400436	-0.029606	0.105364	9.794354	-0.001900	0.005135	-0.000404
61895	11400461	-0.021769	0.088703	9.804864	-0.003649	-0.000721	-0.005430
61896	11400486	-0.024335	0.104828	9.800078	-0.006989	-0.000057	0.000158
61897	11400511	-0.034416	0.082756	9.780002	-0.000919	0.000241	-0.003317
61898	11400536	-0.021199	0.115096	9.814924	-0.000992	-0.001045	0.003348
61899	11400561	-0.007723	0.069802	9.810074	-0.004651	-0.005184	-0.000001
61900	11400586	-0.034067	0.076945	9.814520	-0.007927	0.000818	-0.005922
61901	11400611	-0.036861	0.071286	9.813094	-0.003941	0.001033	0.000995
61902	11400636	-0.030966	0.109016	9.795323	-0.011475	-0.003822	-0.000039
61903	11400661	-0.011091	0.082525	9.787083	-0.000374	-0.001054	-0.003898
61904	11400686	-0.029560	0.060013	9.811622	-0.001332	-0.000663	-0.000244
61905	11400711	-0.030647	0.086412	9.788604	-0.004740	-0.004482	-0.001216
61906	11400736	-0.034722	0.089688	9.823138	-0.003116	-0.001419	-0.004598
61907	11400761	-0.003571	0.089531	9.794230	-0.004920	-0.004865	-0.000897
61908	11400786	-0.025529	0.091638	9.794333	-0.005503	-0.002685	-0.002295
61909	11400811	-0.054438	0.117322	9.797825	-0.004269	-0.003442	-0.005694
61910	11400836	-0.032498	0.111909	9.800595	-0.000693	-0.000918	-0.001398
61911	11400861	0.006993	0.071795	9.813834	-0.004561	-0.004484	-0.006604
61912	11400886	-0.013152	0.088920	9.797628	-0.004539	-0.000864	-0.003248
61913	11400911	-0.008538	0.094782	9.816779	-0.006114	-0.003532	-0.001337
61914	11400936	-0.043639	0.089926	9.796347	-0.005345	-0.001392	-0.001903
61915	11400961	-0.020454	0.094260	9.812517	-0.006029	-0.001775	0.003676
61916	11400986	-0.018457	0.086159	9.814914	-0.003611	-0.001290	0.002129
61917	11401011	-0.034397	0.108378	9.807315	-0.008053	-0.001316	-0.005484
61918	11401036	-0.035426	0.119437	9.800125	-0.002109	-0.002821	-0.003453
61919	11401061	-0.018339	0.087783	9.800042	-0.008637	-0.004679	-0.001077
61920	11401086	-0.021240	0.085637	9.813966	-0.009103	-0.004299	-0.002745
61921	11401111	-0.021522	0.101354	9.813960	-0.003059	-0.000757	0.001684
61922	11401136	-0.022676	0.090760	9.793842	-0.001703	-0.001132	-0.000566
61923	11401161	-0.034577	0.087564	9.800610	-0.009765	-0.001465	-0.002022
61924	11401186	-0.031745	0.097801	9.788134	-0.006247	-0.003470	-0.002679
61925	11401211	-0.058368	0.118559	9.807446	-0.005123	-0.000420	-0.004265
61926	11401236	-0.055622	0.096539	9.793531	-0.001302	0.004035	-0.005855
61927	11401261	-0.040772	0.085709	9.796816	-0.002542	0.001054	-0.000551
61928	11401286	-0.036068	0.101464	9.787193	-0.010754	-0.004327	0.000468
61929	11401311	-0.034515	0.090728	9.785260	-0.005679	-0.003000	0.000848
61930	11401336	-0.035076	0.078835	9.818352	-0.002348	-0.001007	0.000270
61931	11401361	-0.030819	0.089481	9.808255	-0.003305	-0.001352	-0.002097
61932	11401386	-0.040020	0.106976	9.800150	-0.005922	-0.003591	-0.001334
61933	11401411	-0.050045	0.111285	9.795411	-0.003253	-0.005101	-0.002563
61934	11401436	-0.056195	0.110016	9.777714	-0.002541	-0.001009	-0.000305
61935	11401461	-0.020703	0.077777	9.804376	-0.005154	0.000821	0.000542
61936	11401486	-0.045613	0.089324	9.804029	-0.003634	0.001360	0.000101
61937	11401511	-0.038062	0.098542	9.797276	-0.006884	0.000656	-0.002021
61938	11401536	-0.021368	0.086476	9.823563	-0.004555	-0.000276	-0.003111
61939	11401561	-0.013154	0.049481	9.801477	-0.003043	-0.001481	-0.002293
61940	11401586	0.001309	0.065489	9.818651	-0.005542	-0.001390	-0.002481
61941	11401611	-0.021682	0.072611	9.828342	-0.006518	-0.002496	0.002840
61942	11401636	-0.045127	0.082938	9.818400	-0.006859	0.000013	-0.000606
61943	11401661	-0.038117	0.104238	9.802067	0.001034	-0.002430	0.001542
61944	11401686	-0.025393	0.083579	9.791453	-0.005309	-0.004284	0.003470
61945	11401711	-0.012794	0.054925	9.814896	-0.007786	-0.005236	0.000906
61946	11401736	-0.025745	0.062003	9.808244	-0.006226	-0.002110	-0.001715
61947	11401761	-0.001056	0.071518	9.793736	-0.005913	0.002483	-0.000151
61948	11401786	-0.027904	0.074648	9.818798	-0.002694	0.001563	-0.004010
61949	11401811	-0.045736	0.095916	9.812182	0.000478	0.000782	-0.000881
61950	11401836	-0.017830	0.049411	9.801978	-0.000031	-0.007683	-0.000291
61951	11401861	-0.020779	0.078440	9.825468	-0.002411	-0.003405	-0.003460
61952	11401886	-0.027794	0.107479	9.812553	-0.003169	0.000720	-0.002091
61953	11401911	-0.022911	0.059075	9.815431	-0.003833	0.003356	-0.002265
61954	11401936	-0.024016	0.115668	9.801504	-0.008783	-0.001892	0.000346
61955	11401961	-0.036935	0.110075	9.820755	-0.005206	0.002629	0.002801
61956	11401986	-0.009367	0.088307	9.805282	-0.007436	-0.001812	0.001307
61957	11402011	-0.025393	0.077319	9.797211	-0.008784	-0.001891	0.001180
61958	11402036	-0.043845	0.104698	9.795382	-0.003038	0.000456	-0.002477
61959	11402061	-0.021967	0.105238	9.803416	-0.007798	-0.002782	0.001173
61960	11402086	-0.018419	0.087768	9.802456	-0.007285	0.001228	-0.002010
61961	11402111	-0.041803	0.101496	9.785308	-0.007285	-0.002579	0.002137
61962	11402136	-0.049671	0.101938	9.816986	-0.000894	0.001536	-0.000678
61963	11402161	-0.032892	0.099925	9.802522	-0.007860	0.001282	-0.002266
61964	11402186	-0.027354	0.091781	9.782841	-0.003599	-0.002132	-0.001588
61965	11402211	-0.044566	0.117150	9.816952	-0.004974	-0.001253	-0.002861
61966	11402236	-0.062995	0.103614	9.816093	-0.005241	-0.000282	0.001574
61967	11402261	-0.028792	0.109687	9.822149	-0.003545	-0.001620	-0.002037
61968	11402286	-0.015882	0.064004	9.835996	-0.009431	-0.003976	-0.001073
61969	11402311	-0.040777	0.077157	9.828927	-0.006339	-0.004567	-0.000827
61970	11402336	-0.026778	0.063855	9.812080	-0.001939	0.002098	-0.001062
61971	11402361	-0.045299	0.068013	9.804506	-0.002997	-0.002961	-0.002298
61972	11402386	-0.014883	0.074637	9.798127	-0.002910	-0.001208	0.002196
61973	11402411	-0.011783	0.047915	9.812498	-0.000276	0.000188	-0.001718
61974	11402436	-0.041101	0.075065	9.809746	-0.005126	-0.004743	-0.003970
61975	11402461	0.001807	0.059783	9.822475	-0.003429	-0.001286	-0.002107
61976	11402486	-0.008412	0.083163	9.802408	-0.006475	0.003953	-0.003025
61977	11402511	-0.017031	0.087704	9.812510	-0.001395	-0.000671	-0.000179
61978	11402536	-0.046149	0.092124	9.808338	-0.002980	0.001116	0.002280
61979	11402561	-0.011510	0.064888	9.816326	-0.004743	-0.002408	-0.001010
61980	11402586	-0.004514	0.090589	9.785612	-0.003581	-0.000644	-0.000301
61981	11402611	-0.005026	0.094495	9.779848	-0.004742	-0.000218	-0.001580
61982	11402636	-0.027245	0.111377	9.801528	-0.008039	-0.001501	-0.002918
61983	11402661	-0.024249	0.122997	9.822602	-0.005963	0.000021	-0.002797
61984	11402686	-0.037120	0.123304	9.823157	-0.004143	0.003617	0.002354
61985	11402711	-0.024757	0.113137	9.785695	-0.003102	-0.003803	-0.001664
61986	11402736	-0.042142	0.116851	9.804954	-0.005752	-0.000685	-0.001130
61987	11402761	-0.035543	0.110069	9.825063	-0.002515	0.001882	-0.007215
61988	11402786	-0.016143	0.072534	9.779919	-0.001924	-0.004295	0.001985
61989	11402811	-0.024516	0.104441	9.824045	-0.007439	0.002196	-0.000598
61990	11402836	-0.010078	0.086423	9.835007	-0.006920	0.003815	-0.003602
61991	11402861	-0.034467	0.074776	9.804930	-0.004777	0.000620	-0.002787
61992	11402886	-0.043544	0.082924	9.796345	0.003263	-0.000395	-0.000833
61993	11402911	-0.034427	0.075103	9.781934	-0.006065	0.007519	-0.000507
61994	11402936	-0.006714	0.056496	9.815348	0.000580	0.001822	0.001948
61995	11402961	-0.027505	0.070906	9.841802	-0.007734	0.001088	-0.002459
61996	11402986	-0.027705	0.060336	9.824074	-0.003721	-0.000460	-0.003953
61997	11403011	-0.013460	0.062019	9.817774	-0.005066	0.001977	-0.002338
61998	11403036	-0.029584	0.074113	9.787173	-0.005570	-0.000685	-0.003631
61999	11403061	-0.036026	0.054852	9.802551	-0.002755	-0.004576	-0.000834
62000	11403086	-0.036716	0.072922	9.796800	-0.006488	-0.002255	-0.004786
62001	11403111	-0.029298	0.073135	9.821190	-0.005838	-0.001314	0.007141
62002	11403136	-0.014622	0.050244	9.810114	-0.004737	-0.002414	-0.000691
62003	11403161	-0.028712	0.071460	9.809696	-0.001441	-0.001441	-0.000376
62004	11403186	-0.014496	0.068487	9.829760	-0.000913	-0.004150	-0.002509
62005	11403211	-0.038962	0.123891	9.815963	-0.004263	-0.001302	-0.003122
62006	11403236	-0.038518	0.100989	9.792966	-0.001673	-0.001568	0.006232
62007	11403261	-0.021394	0.071287	9.795267	-0.003915	-0.006530	-0.002703
62008	11403286	-0.008223	0.076637	9.799040	-0.002308	-0.003968	0.004043
62009	11403311	-0.010399	0.100286	9.800484	-0.003353	-0.003743	-0.000449
62010	11403336	-0.000230	0.082441	9.794696	-0.006503	0.000590	-0.003882
62011	11403361	-0.028943	0.106980	9.779014	-0.005302	-0.004937	-0.000830
62012	11403386	-0.037220	0.103737	9.802069	-0.003847	0.001799	-0.003111
62013	11403411	-0.012454	0.109296	9.796192	-0.003923	0.000389	0.001894
62014	11403436	-0.031386	0.091749	9.815931	-0.002195	-0.001785	-0.000241
62015	11403461	-0.016750	0.076248	9.784712	-0.004292	0.001468	-0.004005
62016	11403486	-0.018151	0.072747	9.796227	-0.000750	0.001019	-0.000684
62017	11403511	-0.018703	0.086639	9.782316	-0.008385	-0.004667	-0.001270
62018	11403536	-0.017841	0.078280	9.808201	-0.001174	-0.001641	-0.001596
62019	11403561	-0.038487	0.064002	9.796810	0.001407	-0.006829	-0.003487
62020	11403586	-0.028675	0.069036	9.810658	-0.004564	-0.001498	0.001881
62021	11403611	-0.033017	0.073338	9.805401	-0.005329	-0.001834	0.001299
62022	11403636	-0.026763	0.083145	9.788587	-0.004767	-0.005841	-0.002763
62023	11403661	-0.029542	0.071706	9.789557	-0.004320	-0.003560	0.000840
62024	11403686	-0.011462	0.066187	9.797150	-0.000893	-0.000469	-0.000563
62025	11403711	-0.011148	0.088320	9.775096	-0.002505	0.001761	-0.003885
62026	11403736	-0.018536	0.085982	9.825934	-0.008374	-0.000794	-0.002345
62027	11403761	-0.023303	0.097599	9.805347	-0.008161	-0.001572	-0.002860
62028	11403786	0.022044	0.054718	9.798903	0.000037	-0.003745	-0.001423
62029	11403811	-0.025753	0.098010	9.809674	-0.004771	0.000627	-0.002219
62030	11403836	-0.041070	0.075722	9.799207	-0.003895	-0.002846	-0.001591
62031	11403861	-0.020959	0.098166	9.804387	-0.004502	0.001982	-0.005412
62032	11403886	-0.017970	0.046400	9.809172	-0.004970	0.000957	0.001696
62033	11403911	-0.037436	0.089556	9.798712	-0.001463	-0.000538	0.000407
62034	11403936	-0.013754	0.062154	9.806746	-0.002988	-0.007161	0.000043
62035	11403961	0.001906	0.071641	9.789886	-0.004524	-0.005311	-0.000390
62036	11403986	-0.010950	0.090546	9.817749	-0.000440	0.003149	-0.005102
62037	11404011	-0.015334	0.073134	9.798612	-0.008300	-0.001310	-0.001702
62038	11404036	-0.047984	0.086711	9.816010	-0.006869	-0.002129	-0.004721
62039	11404061	-0.034134	0.080656	9.822661	-0.003679	-0.003751	-0.003330
62040	11404086	-0.039704	0.079385	9.805430	-0.007854	-0.003369	-0.001453
62041	11404111	-0.056456	0.082591	9.806472	-0.001100	-0.002028	-0.001079
62042	11404136	-0.045152	0.086216	9.816964	-0.010008	0.000010	-0.004512
62043	11404161	-0.053173	0.096030	9.796383	-0.002113	-0.006890	-0.004630
62044	11404186	-0.051780	0.087779	9.807404	-0.004895	-0.003564	0.000653
62045	11404211	-0.036138	0.095600	9.805896	-0.004597	0.000946	-0.002721
62046	11404236	-0.026782	0.106173	9.805846	-0.002463	0.002472	-0.003298
62047	11404261	-0.058885	0.121918	9.802641	-0.004967	0.000750	-0.003622
62048	11404286	-0.057166	0.115246	9.772923	-0.008266	-0.000083	-0.002530
62049	11404311	-0.009388	0.082366	9.819176	-0.009309	-0.001720	-0.001961
62050	11404336	-0.065956	0.109301	9.813698	-0.007610	0.001612	0.000942
62051	11404361	-0.024378	0.106250	9.804387	-0.003687	-0.001228	-0.001648
62052	11404386	-0.000146	0.070412	9.807158	-0.003596	-0.000133	-0.002481
62053	11404411	-0.045301	0.107703	9.808805	-0.010265	-0.004394	-0.007546
62054	11404436	-0.048053	0.104141	9.794439	-0.006811	-0.002262	-0.006835
62055	11404461	-0.024956	0.083704	9.784748	-0.005285	0.000414	-0.006706
62056	11404486	-0.038511	0.090790	9.806384	-0.006819	0.000983	0.001320
62057	11404511	-0.016892	0.072147	9.807241	-0.002120	0.003897	-0.001955
62058	11404536	-0.022749	0.081778	9.820689	-0.004847	0.000882	-0.002342
62059	11404561	-0.026888	0.074788	9.809210	-0.005740	0.001001	-0.000028
62060	11404586	-0.026922	0.056199	9.782863	-0.002027	-0.001261	-0.000758
62061	11404611	-0.031904	0.097456	9.808263	-0.010119	-0.002052	0.000927
62062	11404636	-0.047981	0.065379	9.784879	-0.007364	-0.002721	-0.002412
62063	11404661	-0.027016	0.081211	9.822620	-0.005113	-0.000872	-0.004148
62064	11404686	-0.010586	0.064375	9.820147	-0.004275	-0.002658	0.001612
62065	11404711	-0.021421	0.066440	9.795763	-0.010040	-0.000763	-0.000924
62066	11404736	-0.011286	0.092743	9.797138	-0.003004	-0.000633	-0.001204
62067	11404761	0.002307	0.079732	9.790844	-0.001509	-0.005122	0.002940
62068	11404786	-0.018670	0.074110	9.799094	-0.003730	-0.002137	-0.003512
62069	11404811	-0.011862	0.091474	9.812959	-0.006871	-0.001670	-0.000428
62070	11404836	-0.034502	0.116892	9.805396	-0.011854	-0.002085	-0.001699
62071	11404861	-0.012546	0.112091	9.800018	-0.007601	0.001422	0.000039
62072	11404886	-0.021508	0.109461	9.807725	-0.006922	-0.003994	0.002450
62073	11404911	-0.041245	0.111319	9.825565	-0.006765	-0.000760	0.002848
62074	11404936	-0.015511	0.103320	9.844131	-0.007699	-0.002143	-0.003888
62075	11404961	-0.032795	0.086840	9.825045	-0.001384	-0.002864	0.001544
62076	11404986	-0.033503	0.095071	9.839429	-0.006977	-0.002448	-0.001328
62077	11405011	-0.033251	0.091641	9.818818	-0.004162	-0.004728	-0.002305
62078	11405036	-0.035287	0.074920	9.792479	-0.005971	-0.002177	-0.002608
62079	11405061	-0.031229	0.077099	9.812575	-0.001431	0.000294	-0.003123
62080	11405086	-0.031592	0.075760	9.806353	-0.001858	-0.002356	0.001232
62081	11405111	-0.047866	0.087433	9.802116	-0.004669	-0.004742	-0.002304
62082	11405136	-0.025651	0.080094	9.837473	-0.002262	-0.000180	-0.005688
62083	11405161	-0.021814	0.062924	9.784746	-0.001474	-0.000283	0.000979
62084	11405186	-0.033569	0.070057	9.834636	-0.003262	-0.004645	-0.000706
62085	11405211	-0.018499	0.062271	9.794779	-0.005540	-0.002992	0.005078
62086	11405236	-0.050192	0.114326	9.809305	-0.006869	-0.003940	-0.002167
62087	11405261	-0.020458	0.095730	9.810133	-0.005369	-0.000940	-0.003441
62088	11405286	-0.031434	0.106314	9.792449	-0.003050	-0.000758	0.001884
62089	11405311	-0.012216	0.088967	9.794272	-0.004598	0.001340	-0.000675
62090	11405336	-0.026692	0.096530	9.813029	-0.002913	-0.001140	0.002778
62091	11405361	-0.046903	0.105442	9.832778	-0.008446	-0.002407	0.001436
62092	11405386	-0.033701	0.087456	9.814508	-0.003467	-0.001934	0.000656
62093	11405411	-0.002607	0.087720	9.788479	-0.004137	0.000829	-0.001185
62094	11405436	-0.026499	0.094515	9.790982	-0.005102	-0.001322	-0.003503
62095	11405461	-0.014962	0.081862	9.789981	-0.004815	0.001980	-0.003555
62096	11405486	-0.040383	0.082475	9.820302	-0.006324	-0.000696	-0.001194
62097	11405511	-0.054222	0.096493	9.798795	-0.000541	0.000705	-0.000045
62098	11405536	-0.013107	0.077794	9.809620	-0.003986	0.002192	-0.001566
62099	11405561	-0.039321	0.086106	9.805900	-0.000201	-0.004137	0.000441
62100	11405586	-0.028897	0.082845	9.807779	-0.004381	0.000772	0.002144
62101	11405611	-0.056014	0.123863	9.800239	-0.004698	0.000888	0.002156
62102	11405636	-0.016047	0.089733	9.800513	-0.005925	-0.001395	-0.000876
62103	11405661	-0.028251	0.081514	9.802498	-0.007112	-0.004718	-0.003773
62104	11405686	-0.022788	0.095679	9.810616	-0.003330	-0.004312	0.002822
62105	11405711	-0.022817	0.099242	9.795756	-0.004612	-0.000213	0.000021
62106	11405736	-0.011416	0.098899	9.798580	-0.002337	0.001070	0.003682
62107	11405761	-0.018876	0.101972	9.771778	-0.007042	0.001422	-0.002776
62108	11405786	-0.030888	0.102117	9.788620	-0.001831	0.000741	-0.001259
62109	11405811	-0.020163	0.074938	9.802463	-0.006203	-0.000295	0.001311
62110	11405836	-0.022929	0.106656	9.806301	-0.007299	-0.002450	-0.000171
62111	11405861	-0.004661	0.087715	9.814360	-0.009926	-0.001909	0.004071
62112	11405886	-0.054294	0.098218	9.805979	-0.004572	-0.001431	0.001943
62113	11405911	-0.038133	0.106735	9.786256	-0.006315	0.003649	0.006016
62114	11405936	-0.022201	0.118456	9.809168	-0.006393	0.003569	-0.001422
62115	11405961	-0.023123	0.090203	9.796717	-0.005940	-0.003342	-0.005373
62116	11405986	-0.000679	0.086089	9.798999	-0.009395	-0.005138	-0.000887
62117	11406011	-0.001047	0.065739	9.799981	-0.003834	0.003552	0.000297
62118	11406036	-0.026518	0.089428	9.812077	-0.007144	-0.003156	0.000279
62119	11406061	-0.013654	0.086177	9.817762	-0.007023	-0.005165	-0.000830
62120	11406086	-0.023639	0.088751	9.798163	-0.002468	-0.001201	0.000782
62121	11406111	-0.019799	0.074790	9.815878	-0.003500	0.001168	0.001693
62122	11406136	-0.032814	0.091737	9.813072	-0.005111	0.001000	-0.005607
62123	11406161	-0.058196	0.108612	9.804561	-0.005101	-0.001059	-0.000036
62124	11406186	-0.049837	0.077206	9.819384	-0.005078	0.000295	-0.000545
62125	11406211	-0.011691	0.048591	9.798103	-0.003614	-0.003804	0.000001
62126	11406236	-0.059586	0.098407	9.819902	-0.004357	-0.002472	-0.002870
62127	11406261	-0.057794	0.107467	9.819414	-0.003399	-0.002123	0.000463
62128	11406286	-0.047225	0.076167	9.795405	-0.005172	-0.005133	-0.002368
62129	11406311	-0.068783	0.087476	9.784496	-0.000742	0.000961	0.000286
62130	11406336	-0.062879	0.090822	9.815140	-0.004986	0.001530	-0.001889
62131	11406361	-0.050431	0.090932	9.818437	-0.004616	-0.000542	-0.004013
62132	11406386	-0.027918	0.082381	9.808249	-0.005029	0.000420	-0.004327
62133	11406411	-0.057041	0.089541	9.808399	-0.008357	0.000164	-0.007463
62134	11406436	-0.023302	0.058327	9.801048	-0.004226	0.001538	-0.002275
62135	11406461	-0.069089	0.099957	9.802707	-0.005622	0.001521	0.001709
62136	11406486	-0.064361	0.110410	9.805556	-0.007327	-0.004213	-0.007229
62137	11406511	-0.051993	0.119038	9.775773	-0.010899	0.001867	-0.004756
62138	11406536	-0.045488	0.090537	9.791559	-0.000826	-0.002795	-0.001466
62139	11406561	-0.068188	0.108570	9.805573	-0.000452	-0.002469	-0.002939
62140	11406586	-0.054126	0.114457	9.827556	-0.005634	-0.000817	-0.004713
62141	11406611	-0.038666	0.098275	9.813102	-0.004911	0.002879	-0.003676
62142	11406636	-0.036583	0.102607	9.784805	-0.000836	-0.000341	-0.001331
62143	11406661	-0.041811	0.086488	9.807844	-0.003837	0.003813	-0.000466
62144	11406686	-0.051153	0.089693	9.774817	-0.004855	0.000942	-0.004068
62145	11406711	-0.064720	0.098717	9.793098	-0.008276	0.001980	-0.003542
62146	11406736	-0.047679	0.104461	9.802588	-0.007887	0.000317	0.002350
62147	11406761	-0.054089	0.086461	9.800238	-0.001551	-0.001240	0.006554
62148	11406786	-0.009553	0.065520	9.807207	-0.006221	-0.002247	-0.001074
62149	11406811	-0.003760	0.056485	9.810050	-0.008616	-0.001246	-0.000359
62150	11406836	-0.023010	0.072992	9.807271	-0.000486	-0.001363	-0.002559
62151	11406861	-0.021870	0.058682	9.808691	-0.009422	-0.002170	-0.001447
62152	11406886	-0.020526	0.076214	9.786642	-0.001554	-0.002033	-0.001979
62153	11406911	-0.025881	0.073911	9.802969	-0.005533	0.000489	-0.001766
62154	11406936	-0.035441	0.082025	9.792950	-0.006700	0.000717	-0.003362
62155	11406961	-0.004628	0.062668	9.783215	-0.002207	-0.001593	-0.001658
62156	11406986	-0.006663	0.061505	9.791364	-0.006841	0.005302	-0.003660
62157	11407011	-0.028598	0.079436	9.842772	-0.007966	0.002640	-0.000013
62158	11407036	-0.007868	0.072042	9.816302	-0.006147	0.003898	-0.001745
62159	11407061	-0.016021	0.083374	9.809155	-0.008783	0.000237	0.000942
62160	11407086	-0.031051	0.073344	9.805388	-0.008978	-0.004299	-0.004408
62161	11407111	-0.002710	0.054321	9.798546	-0.008397	-0.002281	-0.002222
62162	11407136	-0.010973	0.071150	9.781331	-0.004135	0.002638	-0.003813
62163	11407161	-0.034186	0.091035	9.798217	0.000264	0.001559	-0.000617
62164	11407186	-0.017937	0.092522	9.799578	-0.008848	-0.003502	0.006497
62165	11407211	-0.046158	0.090045	9.818413	-0.006048	-0.001460	-0.001389
62166	11407236	-0.046151	0.091670	9.808338	-0.002512	0.000215	-0.001264
62167	11407261	-0.041169	0.076552	9.806871	-0.002819	-0.000507	-0.004791
62168	11407286	-0.022296	0.094755	9.802946	-0.011839	-0.000601	-0.001685
62169	11407311	-0.051896	0.105184	9.784404	-0.009255	0.000873	-0.001240
62170	11407336	-0.062209	0.107214	9.831430	-0.006412	0.002147	-0.001685
62171	11407361	-0.049958	0.103768	9.787745	-0.003353	-0.001279	0.003226
62172	11407386	-0.047134	0.101118	9.808338	-0.002718	-0.003728	-0.001472
62173	11407411	-0.045094	0.088337	9.804501	-0.007895	-0.003761	-0.000754
62174	11407436	-0.080444	0.100780	9.802749	-0.004078	-0.005309	-0.003844
62175	11407461	-0.063890	0.105671	9.806992	-0.001793	-0.002161	0.002190
62176	11407486	-0.085013	0.123070	9.799411	-0.006640	-0.002953	-0.000167
62177	11407511	-0.017350	0.068759	9.810602	-0.001025	0.003599	-0.000995
62178	11407536	-0.029260	0.077102	9.808262	-0.004731	-0.000723	-0.000939
62179	11407561	-0.021958	0.097938	9.820194	-0.005040	-0.002669	0.001940
62180	11407586	-0.032422	0.098184	9.823116	-0.008827	-0.005008	-0.004730
62181	11407611	-0.028179	0.103602	9.813519	-0.006682	-0.003737	-0.001910
62182	11407636	-0.043899	0.107787	9.805449	-0.008342	-0.001431	0.002281
62183	11407661	-0.028193	0.103767	9.809208	0.000073	-0.001043	-0.006789
62184	11407686	-0.012425	0.101091	9.806259	-0.003561	0.000575	-0.005816
62185	11407711	-0.011045	0.107116	9.812477	-0.008705	-0.004876	-0.004286
62186	11407736	0.000568	0.098620	9.794683	-0.005439	-0.002481	0.000460
62187	11407761	0.010079	0.101766	9.777374	-0.006194	0.003713	0.004539
62188	11407786	0.003408	0.091334	9.807606	-0.004303	0.001988	-0.001247
62189	11407811	-0.005922	0.080328	9.803822	-0.005408	-0.003257	0.002061
62190	11407836	0.004459	0.091486	9.795626	-0.005649	-0.001718	0.000530
62191	11407861	0.025867	0.086712	9.811332	-0.008804	-0.001644	-0.001064
62192	11407886	0.032357	0.061779	9.803642	-0.010003	0.000353	0.004587
62193	11407911	0.023347	0.068418	9.801288	-0.004959	-0.005843	-0.002383
62194	11407936	-0.003639	0.088047	9.800947	-0.001505	-0.001322	-0.000827
62195	11407961	0.014109	0.083199	9.785994	-0.005735	0.000404	-0.006580
62196	11407986	0.013763	0.064888	9.803732	-0.008175	0.001220	0.000425
62197	11408011	0.021045	0.058574	9.787388	-0.008021	0.002514	0.001712
62198	11408036	0.021042	0.066368	9.779728	-0.002016	0.000674	0.000662
62199	11408061	0.015065	0.068134	9.810431	-0.005338	0.002560	0.001961
62200	11408086	0.003525	0.078702	9.823437	-0.006318	-0.003275	-0.001782
62201	11408111	-0.022259	0.092095	9.798147	-0.003639	-0.000650	-0.001267
62202	11408136	-0.004946	0.073974	9.818204	-0.004682	-0.004406	-0.000766
62203	11408161	-0.017867	0.076655	9.819223	-0.004716	-0.005190	-0.000900
62204	11408186	-0.027729	0.071514	9.802498	-0.008970	0.000042	0.001326
62205	11408211	-0.031099	0.077328	9.797728	-0.000122	-0.000580	0.000207
62206	11408236	-0.052374	0.091840	9.821796	-0.003107	0.000717	-0.000545
62207	11408261	-0.028138	0.109298	9.786677	-0.001417	-0.000089	-0.001779
62208	11408286	-0.047025	0.106258	9.778138	-0.007030	-0.004777	-0.000183
62209	11408311	-0.059446	0.098259	9.799775	-0.004342	-0.005050	-0.002305
62210	11408336	-0.039816	0.090385	9.801592	-0.005111	-0.004607	0.002313
62211	11408361	-0.081153	0.115010	9.801806	-0.004266	0.001286	0.001711
62212	11408386	-0.068748	0.118982	9.797898	-0.007784	-0.003436	-0.003695
62213	11408411	-0.089576	0.137521	9.812382	-0.007178	-0.000459	-0.005412
62214	11408436	-0.075789	0.131371	9.824777	-0.002068	0.000286	-0.000553
62215	11408461	-0.068041	0.111396	9.768661	-0.006765	-0.001153	-0.002405
62216	11408486	-0.057074	0.131855	9.807903	-0.001064	-0.003052	-0.000063
62217	11408511	-0.045923	0.084660	9.795393	-0.007156	-0.003035	-0.001071
62218	11408536	-0.055437	0.092778	9.786812	-0.006208	-0.006635	-0.000514
62219	11408561	-0.071361	0.067098	9.782112	-0.003135	-0.000638	-0.000747
62220	11408586	-0.054129	0.088201	9.807899	-0.006643	-0.005026	-0.000569
62221	11408611	-0.044192	0.092772	9.796829	-0.004014	-0.000903	0.001816
62222	11408636	-0.016814	0.064356	9.817308	-0.004588	0.002624	-0.004578
62223	11408661	-0.033609	0.056112	9.781451	-0.007300	0.001614	-0.001365
62224	11408686	-0.038237	0.061061	9.828925	-0.004266	0.000760	-0.001891
62225	11408711	-0.015265	0.068958	9.797155	-0.003822	-0.001499	-0.005822
62226	11408736	-0.003046	0.063237	9.840244	-0.003545	-0.003876	-0.001600
62227	11408761	-0.020924	0.091920	9.811081	-0.004449	0.000833	0.000732
62228	11408786	-0.004721	0.071152	9.784180	-0.003070	-0.002450	-0.000766
62229	11408811	-0.003293	0.068711	9.789438	-0.006375	-0.001599	-0.003053
62230	11408836	-0.003715	0.073753	9.831132	-0.005910	0.002480	-0.001244
62231	11408861	-0.002479	0.077913	9.779366	-0.005715	0.002424	0.002412
62232	11408886	0.005684	0.073136	9.791792	-0.000192	-0.002587	0.000069
62233	11408911	0.048163	0.057847	9.798288	-0.003156	0.000143	-0.000887
62234	11408936	0.034971	0.048125	9.804588	-0.002442	-0.002243	-0.001083
62235	11408961	0.016605	0.074086	9.794135	-0.008138	-0.002411	-0.002164
62236	11408986	0.021833	0.073961	9.806087	-0.008149	-0.004415	-0.004737
62237	11409011	0.025672	0.072645	9.803672	-0.005910	-0.006114	-0.002444
62238	11409036	-0.001699	0.111310	9.833998	-0.001021	-0.004873	-0.003789
62239	11409061	0.016770	0.079022	9.815211	-0.004931	0.008121	-0.000316
62240	11409086	-0.013751	0.123057	9.828295	-0.003488	-0.001748	-0.004153
62241	11409111	-0.024935	0.106392	9.821172	-0.005899	-0.000170	-0.002788
62242	11409136	-0.019337	0.124764	9.805324	-0.003670	-0.001350	0.003482
62243	11409161	-0.031016	0.146505	9.800579	-0.004998	-0.003959	0.001997
62244	11409186	-0.025062	0.131909	9.794799	-0.007603	-0.005507	-0.006790
62245	11409211	-0.036708	0.130068	9.817399	-0.004177	0.002587	0.002284
62246	11409236	-0.047429	0.121941	9.809782	-0.005257	-0.002423	-0.003254
62247	11409261	-0.036457	0.125502	9.802529	-0.008075	-0.002342	-0.002600
62248	11409286	-0.060113	0.107626	9.806021	-0.003746	0.001301	0.002989
62249	11409311	-0.077386	0.107664	9.822875	-0.002174	-0.000165	0.000665
62250	11409336	-0.061779	0.099841	9.789247	-0.001553	-0.001773	-0.000113
62251	11409361	-0.076066	0.093853	9.792681	-0.005591	0.000155	-0.003622
62252	11409386	-0.085420	0.118903	9.792711	-0.005217	-0.001182	0.002399
62253	11409411	-0.061342	0.086710	9.805067	-0.007921	0.003549	0.003135
62254	11409436	-0.057808	0.067088	9.819902	-0.005433	-0.000876	-0.004210
62255	11409461	-0.053703	0.086716	9.812696	-0.006445	-0.001012	0.000285
62256	11409486	-0.049264	0.077127	9.819379	-0.007096	-0.006780	0.000577
62257	11409511	-0.024938	0.050304	9.792425	-0.011274	-0.006598	-0.002621
62258	11409536	-0.044497	0.073009	9.814091	-0.009739	-0.000170	0.000043
62259	11409561	-0.049779	0.066050	9.831388	-0.006974	0.001821	0.001457
62260	11409586	-0.021738	0.055649	9.792412	-0.002836	-0.002186	-0.003392
62261	11409611	-0.018863	0.058676	9.781362	-0.004104	-0.004202	0.002886
62262	11409636	-0.021901	0.057241	9.810145	-0.006963	0.001563	0.002865
62263	11409661	-0.005137	0.019277	9.796166	-0.004105	0.000194	0.003041
62264	11409686	-0.027293	0.050616	9.772308	-0.006858	-0.000249	-0.000036
62265	11409711	-0.043522	0.069591	9.827501	-0.003020	-0.006391	-0.003025
62266	11409736	-0.010360	0.045609	9.808170	-0.002463	0.002477	-0.000677
62267	11409761	-0.020793	0.064881	9.777059	-0.007512	-0.002076	-0.002286
62268	11409786	-0.025852	0.065114	9.820711	-0.003797	-0.000198	-0.003947
62269	11409811	-0.009293	0.092347	9.790416	-0.007467	-0.005367	-0.001857
62270	11409836	-0.009204	0.081915	9.792816	-0.002424	-0.002626	0.000520
62271	11409861	0.035973	0.040905	9.808892	-0.007118	-0.002004	0.000292
62272	11409886	0.011094	0.084198	9.819567	0.001977	-0.004436	-0.002104
62273	11409911	-0.000687	0.075596	9.811467	-0.001501	-0.001648	-0.001118
62274	11409936	0.002975	0.096838	9.788926	-0.003727	-0.000004	0.001332
62275	11409961	-0.014747	0.095875	9.805305	-0.003603	0.001927	-0.003850
62276	11409986	0.009257	0.093639	9.784098	-0.006583	-0.000770	-0.000332
62277	11410011	-0.005423	0.086750	9.789449	-0.003117	-0.003490	-0.002922
62278	11410036	-0.021736	0.105223	9.778012	-0.003052	-0.007096	0.003220
62279	11410061	0.007580	0.100383	9.807589	-0.004284	-0.000925	-0.003740
62280	11410086	-0.006665	0.087997	9.830673	-0.004259	-0.001703	-0.004828
62281	11410111	0.010476	0.098748	9.797030	-0.000936	0.003012	-0.000268
62282	11410136	-0.001455	0.099217	9.811468	-0.005879	-0.000691	0.000823
62283	11410161	-0.024040	0.093318	9.777071	-0.007765	-0.001886	-0.000526
62284	11410186	-0.007860	0.083708	9.792336	-0.009038	0.001565	-0.006728
62285	11410211	-0.005540	0.060786	9.776039	-0.009221	0.001045	-0.007431
62286	11410236	0.020110	0.050652	9.808977	-0.009003	-0.001195	-0.000140
62287	11410261	-0.001546	0.063973	9.820594	-0.006099	-0.001864	-0.000276
62288	11410286	-0.011527	0.065725	9.826385	-0.002962	-0.006321	-0.000688
62289	11410311	-0.003016	0.062480	9.828270	-0.001828	-0.001466	-0.000933
62290	11410336	0.004550	0.038624	9.812414	-0.002903	-0.001796	0.000997
62291	11410361	-0.021072	0.064200	9.820194	-0.006813	-0.001879	-0.003675
62292	11410386	-0.011101	0.077526	9.797139	-0.007133	-0.001885	-0.003864
62293	11410411	-0.036655	0.078478	9.771392	-0.011593	-0.002809	-0.005777
62294	11410436	-0.042080	0.084248	9.796335	-0.005250	-0.004682	-0.000288
62295	11410461	-0.042263	0.083968	9.815504	-0.005953	-0.002575	-0.002906
62296	11410486	-0.042887	0.068079	9.796829	-0.005640	-0.000960	-0.006871
62297	11410511	-0.046419	0.079691	9.814091	-0.005360	-0.004876	0.003108
62298	11410536	-0.065951	0.082222	9.790707	-0.000827	0.001407	0.000180
62299	11410561	-0.067088	0.100079	9.799349	0.000602	-0.001352	-0.001569
62300	11410586	-0.033545	0.086319	9.795827	-0.000255	-0.002471	-0.000098
62301	11410611	-0.054103	0.086011	9.800702	-0.001143	-0.000741	-0.001882
62302	11410636	-0.050849	0.093146	9.799250	-0.005257	-0.000498	-0.004438
62303	11410661	-0.024778	0.090719	9.821661	-0.004831	0.002426	-0.001790
62304	11410686	-0.041068	0.102050	9.813590	-0.004295	0.001393	-0.006160
62305	11410711	-0.047797	0.116366	9.802588	-0.004853	-0.002939	-0.001688
62306	11410736	-0.048601	0.104186	9.794932	-0.001791	0.001110	-0.007647
62307	11410761	-0.048014	0.090002	9.821762	-0.003690	-0.005497	-0.001130
62308	11410786	-0.056597	0.095865	9.800233	-0.006685	-0.001612	0.000435
62309	11410811	-0.049474	0.100855	9.792068	-0.006635	0.000514	-0.004746
62310	11410836	-0.022891	0.067451	9.791453	-0.007439	-0.000131	0.001083
62311	11410861	-0.062886	0.094084	9.819939	-0.003949	0.000562	-0.004685
62312	11410886	-0.030859	0.062603	9.793891	-0.006521	-0.005563	-0.007279
62313	11410911	-0.029905	0.088827	9.815444	-0.008333	-0.004354	-0.002074
62314	11410936	-0.043918	0.072895	9.795391	-0.002462	0.000004	-0.006108
62315	11410961	-0.043861	0.091462	9.820790	-0.005381	0.001575	-0.002499
62316	11410986	-0.008138	0.066959	9.808161	-0.005619	-0.001410	-0.005591
62317	11411011	-0.009722	0.052536	9.787066	-0.007521	-0.005820	-0.000225
62318	11411036	-0.019549	0.061720	9.800065	-0.005367	0.003850	0.003991
62319	11411061	-0.058041	0.087020	9.823252	-0.001326	-0.003265	-0.002663
62320	11411086	-0.026297	0.072983	9.803922	-0.003527	-0.004134	0.002915
62321	11411111	-0.023029	0.079102	9.810616	-0.004329	-0.007910	-0.005051
62322	11411136	-0.036036	0.087508	9.806855	-0.004987	-0.001071	-0.004500
62323	11411161	-0.023326	0.083927	9.832682	-0.006650	0.001815	0.001614
62324	11411186	-0.004711	0.050843	9.811014	-0.002907	0.002265	-0.000648
62325	11411211	-0.041773	0.092250	9.803523	-0.004601	-0.002871	-0.002266
62326	11411236	-0.058602	0.101533	9.802647	-0.005493	-0.000747	0.001785
62327	11411261	-0.047205	0.092234	9.829433	-0.006242	-0.001283	-0.000589
62328	11411286	-0.055818	0.098008	9.820372	-0.002164	0.001116	-0.002120
62329	11411311	-0.058135	0.088782	9.828539	-0.006050	0.002797	0.001106
62330	11411336	-0.049162	0.104369	9.810753	-0.005305	0.001445	-0.000121
62331	11411361	-0.040260	0.088924	9.796807	-0.012647	-0.003524	-0.001223
62332	11411386	-0.028861	0.069653	9.829826	-0.006837	-0.000702	0.002554
62333	11411411	-0.023193	0.077416	9.821178	-0.009657	0.003439	-0.000811
62334	11411436	-0.017634	0.065400	9.807719	-0.005256	-0.004500	-0.002021
62335	11411461	-0.038554	0.089789	9.811652	-0.003371	0.003234	-0.000829
62336	11411486	-0.012833	0.061348	9.798121	-0.004002	0.000763	0.001472
62337	11411511	-0.028638	0.104430	9.788123	-0.010850	0.006975	-0.000468
62338	11411536	-0.053783	0.107521	9.786798	-0.004606	-0.000934	-0.003663
62339	11411561	-0.027447	0.083713	9.812565	-0.007334	-0.001755	-0.003985
62340	11411586	-0.035045	0.078325	9.815480	-0.005652	0.000410	0.001536
62341	11411611	-0.047155	0.092931	9.812654	-0.007229	0.001808	0.001867
62342	11411636	-0.014620	0.085920	9.807223	-0.002901	0.000189	-0.001678
62343	11411661	-0.050745	0.091998	9.781533	-0.003010	0.001617	-0.000516
62344	11411686	-0.013141	0.089981	9.783740	-0.009172	0.004287	-0.001000
62345	11411711	-0.020964	0.096163	9.812040	-0.005251	-0.000417	0.000823
62346	11411736	-0.021302	0.101880	9.777059	-0.004496	0.002439	0.002569
62347	11411761	-0.023315	0.100274	9.790017	-0.006057	0.004989	-0.001518
62348	11411786	0.004084	0.082930	9.801382	0.000322	-0.002982	-0.004597
62349	11411811	0.001283	0.079101	9.799957	-0.001958	-0.003460	0.001119
62350	11411836	-0.018561	0.099738	9.799093	-0.002600	0.000721	-0.000335
62351	11411861	-0.026648	0.093662	9.814956	-0.005873	-0.003210	-0.001949
62352	11411886	-0.037562	0.086797	9.821720	-0.004335	-0.000992	-0.000460
62353	11411911	-0.022485	0.103649	9.815879	-0.007175	-0.002326	0.000046
62354	11411936	-0.011030	0.103033	9.807205	-0.001186	0.000618	-0.000399
62355	11411961	-0.005174	0.086792	9.819634	-0.004777	-0.001194	-0.001428
62356	11411986	-0.014156	0.083868	9.818244	-0.000790	-0.001967	-0.001824
62357	11412011	-0.037968	0.089346	9.807815	-0.007568	-0.002211	-0.002001
62358	11412036	-0.025823	0.068532	9.812559	-0.007334	-0.001366	-0.001036
62359	11412061	-0.046710	0.066119	9.801644	-0.003168	0.000389	-0.001481
62360	11412086	-0.033115	0.090592	9.796287	-0.002466	-0.003739	-0.002724
62361	11412111	-0.032440	0.070656	9.794368	-0.006330	-0.002499	0.004277
62362	11412136	-0.038768	0.081563	9.790089	-0.006571	0.000787	0.000833
62363	11412161	-0.020257	0.056277	9.785212	-0.002764	-0.002322	-0.001116
62364	11412186	-0.049095	0.107387	9.799237	-0.004241	-0.002286	-0.004701
62365	11412211	-0.036205	0.096503	9.809728	-0.003526	0.002003	0.000833
62366	11412236	-0.027902	0.086258	9.802980	-0.002745	-0.002904	-0.002469
62367	11412261	-0.015281	0.059253	9.812986	-0.001693	0.000411	-0.001940
62368	11412286	-0.025086	0.102326	9.779471	-0.001858	-0.002240	0.000226
62369	11412311	-0.042768	0.079098	9.821756	-0.006209	0.003695	-0.000240
62370	11412336	-0.003042	0.076988	9.806206	-0.005485	-0.001401	-0.002839
62371	11412361	-0.038921	0.092800	9.799673	-0.005051	-0.002748	-0.002652
62372	11412386	-0.019755	0.086522	9.789045	-0.007807	0.003469	-0.001648
62373	11412411	-0.019509	0.104288	9.806277	-0.006664	-0.005990	0.005990
62374	11412436	-0.026089	0.090345	9.813507	-0.006726	-0.004388	0.000101
62375	11412461	-0.025091	0.090571	9.801044	-0.006519	-0.002243	0.005499
62376	11412486	-0.030912	0.093715	9.807308	-0.008315	-0.001004	-0.006163
62377	11412511	-0.011342	0.086853	9.807695	-0.005230	0.002867	-0.004032
62378	11412536	-0.028321	0.079635	9.805375	-0.002301	-0.000897	-0.004120
62379	11412561	-0.031369	0.090262	9.816416	-0.004503	-0.000356	-0.006548
62380	11412586	-0.024367	0.080023	9.776594	-0.009605	-0.000504	-0.003146
62381	11412611	-0.002992	0.078767	9.787041	-0.000277	0.002442	0.000507
62382	11412636	-0.035184	0.079488	9.834166	-0.004879	-0.000027	-0.001293
62383	11412661	-0.026549	0.054002	9.800578	-0.005342	-0.001648	-0.001109
62384	11412686	-0.007534	0.056164	9.802408	-0.005665	0.000207	-0.002635
62385	11412711	0.008612	0.061618	9.800406	-0.005172	-0.000674	0.001015
62386	11412736	-0.018317	0.072038	9.811563	-0.002189	0.002222	0.000955
62387	11412761	-0.011091	0.072958	9.812953	-0.007215	-0.005431	-0.001381
62388	11412786	-0.024060	0.080930	9.813030	-0.004430	-0.004213	0.000867
62389	11412811	-0.012162	0.051556	9.786606	-0.005433	-0.000612	0.002936
62390	11412836	-0.023061	0.079131	9.803910	-0.007541	-0.002919	-0.000018
62391	11412861	-0.017221	0.068222	9.808190	-0.007108	-0.002657	-0.002199
62392	11412886	-0.021292	0.083651	9.816376	-0.011113	-0.001432	-0.001602
62393	11412911	-0.030013	0.067677	9.802039	-0.010613	-0.001164	-0.002369
62394	11412936	-0.014493	0.075759	9.812016	-0.009184	-0.001593	-0.000846
62395	11412961	-0.061986	0.071147	9.800269	-0.006935	-0.002074	-0.002901
62396	11412986	-0.030298	0.074490	9.825041	-0.004523	-0.001189	-0.002392
62397	11413011	0.004928	0.055443	9.795636	-0.004664	-0.002605	0.002797
62398	11413036	-0.020212	0.086963	9.792871	-0.008027	-0.003900	-0.001945
62399	11413061	-0.023801	0.066637	9.790028	-0.000285	0.000238	-0.003099
62400	11413086	-0.021478	0.109647	9.802455	-0.001293	-0.004566	-0.005554
62401	11413111	0.008634	0.062079	9.802813	0.001243	-0.005737	-0.003138
62402	11413136	0.003236	0.034055	9.799475	-0.004031	-0.000730	-0.002648
62403	11413161	-0.021038	0.076205	9.780426	-0.006057	0.002791	-0.002556
62404	11413186	0.016279	0.060929	9.785987	-0.004330	0.002886	-0.001733
62405	11413211	-0.006729	0.073788	9.798556	-0.003268	-0.004394	0.000668
62406	11413236	-0.026164	0.098239	9.799129	-0.001019	0.001326	-0.003351
62407	11413261	-0.020999	0.096616	9.813495	-0.004993	0.001450	-0.002183
62408	11413286	-0.021664	0.108289	9.823073	-0.006314	0.002524	-0.004797
62409	11413311	-0.016017	0.116117	9.811546	-0.007230	0.003675	-0.000112
62410	11413336	-0.024620	0.079380	9.820700	-0.001982	0.001572	-0.000453
62411	11413361	-0.030608	0.071182	9.820731	-0.007690	-0.006282	0.000156
62412	11413386	-0.025589	0.053010	9.808243	-0.002274	-0.005801	-0.001968
62413	11413411	-0.031365	0.086414	9.817369	-0.007077	-0.001155	0.003453
62414	11413436	-0.006123	0.090447	9.823956	-0.006185	-0.005551	-0.002538
62415	11413461	-0.021042	0.071569	9.809649	-0.003809	-0.006029	-0.004721
62416	11413486	-0.049030	0.066801	9.784401	-0.005494	0.002860	-0.005440
62417	11413511	-0.027115	0.089682	9.826936	-0.005762	-0.002895	-0.003806
62418	11413536	-0.047115	0.093474	9.815532	0.000329	-0.003046	-0.003564
62419	11413561	-0.042575	0.070634	9.819347	-0.003286	-0.002275	-0.006309
62420	11413586	-0.026463	0.071672	9.822620	-0.008607	0.000426	0.000255
62421	11413611	-0.062070	0.075429	9.798850	-0.008564	0.001132	-0.000055
62422	11413636	-0.072289	0.079249	9.819984	-0.005865	0.004862	-0.003760
62423	11413661	-0.044122	0.078622	9.823187	-0.005440	-0.002302	0.000751
62424	11413686	-0.069520	0.095700	9.805578	-0.002731	0.001115	0.000505
62425	11413711	-0.050456	0.101727	9.793504	-0.007330	0.000513	-0.000186
62426	11413736	-0.063304	0.128797	9.812733	-0.007635	0.002052	-0.003128
62427	11413761	-0.053039	0.088232	9.774346	-0.006379	0.001115	0.000899
62428	11413786	-0.038711	0.082489	9.791519	-0.006969	-0.004973	-0.000091
62429	11413811	-0.041012	0.096169	9.826048	-0.003746	-0.003493	-0.000219
62430	11413836	-0.042890	0.097641	9.815521	-0.008860	0.000155	-0.001210
62431	11413861	-0.027750	0.063271	9.816886	-0.005551	0.002532	-0.007942
62432	11413886	-0.044487	0.118412	9.798741	-0.001618	-0.000106	-0.002836
62433	11413911	-0.042382	0.112539	9.777637	-0.005142	-0.001842	-0.000466
62434	11413936	-0.039267	0.093115	9.778590	-0.007026	-0.003240	-0.003995
62435	11413961	-0.059407	0.117834	9.819432	-0.008440	0.003329	-0.001389
62436	11413986	-0.055170	0.127442	9.818437	-0.004788	-0.002936	-0.000085
62437	11414011	-0.053569	0.117132	9.807899	-0.003739	-0.000207	-0.005203
62438	11414036	-0.068472	0.129858	9.804608	-0.004202	-0.001645	-0.008030
62439	11414061	-0.052222	0.124293	9.807881	-0.007792	-0.000858	0.000064
62440	11414086	-0.058646	0.102435	9.806008	-0.003228	0.000522	0.000247
62441	11414111	-0.049036	0.092373	9.820808	-0.003447	-0.003244	-0.005350
62442	11414136	-0.045552	0.086446	9.803076	-0.005814	-0.000361	0.004745
62443	11414161	-0.019202	0.105582	9.818734	-0.003470	-0.002077	-0.002012
62444	11414186	-0.026700	0.066331	9.802498	-0.006448	-0.001356	-0.003733
62445	11414211	-0.036684	0.068109	9.799666	-0.009771	-0.003278	0.000179
62446	11414236	-0.026076	0.062743	9.790028	-0.004473	-0.003259	-0.005670
62447	11414261	-0.035048	0.053164	9.788640	-0.005718	0.000025	-0.001420
62448	11414286	-0.035055	0.049629	9.799666	-0.007929	-0.000924	-0.003022
62449	11414311	-0.026297	0.071028	9.804888	-0.007635	-0.001952	0.000437
62450	11414336	-0.032536	0.032072	9.804463	-0.002737	0.003310	0.001928
62451	11414361	-0.004761	0.026736	9.805268	-0.002545	-0.004894	0.002523
62452	11414386	-0.023301	0.052350	9.819259	-0.006576	-0.003095	0.000042
62453	11414411	-0.052943	0.067768	9.809817	-0.007625	-0.002596	-0.001936
62454	11414436	-0.040232	0.073503	9.817894	-0.007093	-0.001042	-0.003858
62455	11414461	-0.011899	0.058400	9.804339	-0.007805	-0.000928	-0.005075
62456	11414486	-0.027279	0.078818	9.789552	-0.008181	-0.001058	-0.001739
62457	11414511	-0.030637	0.086023	9.783341	-0.006507	0.000972	-0.000636
62458	11414536	-0.018929	0.089108	9.806294	-0.007825	-0.000347	-0.004944
62459	11414561	-0.027439	0.078904	9.815438	-0.009985	-0.000906	-0.006095
62460	11414586	-0.025788	0.100815	9.815419	-0.002445	-0.002308	-0.001374
62461	11414611	-0.035699	0.099001	9.796299	-0.007895	0.000304	-0.000770
62462	11414636	-0.049753	0.105603	9.821298	-0.005044	0.003196	-0.000758
62463	11414661	-0.037044	0.088266	9.817870	-0.005913	-0.003928	-0.002849
62464	11414686	-0.043645	0.084548	9.811687	-0.001752	-0.001590	-0.000535
62465	11414711	-0.033220	0.090478	9.802534	-0.003976	0.001797	-0.001666
62466	11414736	-0.042904	0.098742	9.808792	-0.005773	-0.000243	-0.003791
62467	11414761	-0.037727	0.096193	9.824122	-0.007413	0.001612	0.002448
62468	11414786	-0.039545	0.104675	9.799673	-0.003029	-0.001542	0.002548
62469	11414811	-0.020426	0.091355	9.812994	-0.008054	-0.000736	-0.000711
62470	11414836	-0.025658	0.097503	9.811583	-0.007473	-0.006847	0.003488
62471	11414861	-0.013186	0.084376	9.812970	-0.004886	-0.001900	-0.000021
62472	11414886	-0.021517	0.074113	9.792407	-0.009240	-0.000046	-0.002368
62473	11414911	-0.019692	0.070069	9.819233	0.001371	-0.003740	-0.004788
62474	11414936	-0.017316	0.073446	9.811075	-0.004327	-0.001436	-0.000468
62475	11414961	-0.019732	0.078901	9.797192	-0.000162	0.000568	-0.002651
62476	11414986	-0.029044	0.099631	9.795309	-0.004321	0.004824	-0.000112
62477	11415011	-0.024938	0.069535	9.816397	0.000972	0.000910	-0.004061
62478	11415036	-0.036750	0.111884	9.796776	-0.002933	-0.002776	-0.000153
62479	11415061	-0.027279	0.064180	9.817846	-0.006646	0.001100	-0.001986
62480	11415086	-0.009841	0.073193	9.832122	-0.005162	-0.000931	0.002873
62481	11415111	-0.024980	0.070370	9.820225	-0.004798	0.001192	-0.003402
62482	11415136	-0.028316	0.076742	9.803945	-0.002876	0.001365	-0.002250
62483	11415161	-0.038566	0.097926	9.806384	-0.005542	0.000539	-0.001410
62484	11415186	-0.053100	0.083506	9.803583	-0.006589	-0.004706	-0.000025
62485	11415211	-0.033544	0.077012	9.813549	-0.004017	-0.002728	0.001514
62486	11415236	-0.021175	0.069958	9.821158	-0.002679	-0.000834	-0.002842
62487	11415261	-0.039366	0.082534	9.820290	-0.001989	-0.004239	0.001951
62488	11415286	-0.056674	0.097699	9.807433	-0.003576	0.000757	-0.005454
62489	11415311	-0.025184	0.094618	9.813507	-0.008442	-0.003132	-0.003029
62490	11415336	-0.012746	0.096930	9.797628	-0.004587	-0.003062	0.001064
62491	11415361	-0.013570	0.098098	9.788513	-0.000453	-0.008613	-0.000769
62492	11415386	-0.007600	0.088652	9.816297	-0.005278	0.000475	-0.002900
62493	11415411	-0.028881	0.094506	9.785254	-0.008143	0.001782	-0.002809
62494	11415436	-0.065061	0.122115	9.813222	-0.007182	-0.004263	-0.000083
62495	11415461	-0.018332	0.082171	9.794779	-0.008999	0.000602	-0.003657
62496	11415486	-0.023783	0.111812	9.773233	-0.011235	0.000501	-0.000629
62497	11415511	-0.049186	0.110561	9.806426	-0.006272	-0.002706	-0.003223
62498	11415536	-0.027123	0.105635	9.804884	-0.008601	-0.006238	-0.002852
62499	11415561	-0.016539	0.091988	9.804835	-0.008993	-0.003983	-0.004315
62500	11415586	-0.022975	0.077946	9.792413	-0.005062	-0.000882	-0.004566
62501	11415611	0.008374	0.083415	9.798969	-0.006646	-0.003166	-0.003229
62502	11415636	-0.013658	0.077079	9.826392	-0.002746	-0.000906	-0.004059
62503	11415661	-0.001323	0.076695	9.825375	-0.009653	0.002848	-0.006080
62504	11415686	-0.017412	0.086926	9.797170	-0.008316	-0.000937	-0.004625
62505	11415711	-0.010998	0.069390	9.796662	-0.008604	-0.001650	-0.000140
62506	11415736	0.000743	0.073087	9.816744	-0.006816	-0.001609	0.000371
62507	11415761	-0.015157	0.095326	9.808185	-0.006300	-0.001995	-0.003029
62508	11415786	-0.018367	0.077216	9.814919	-0.000563	-0.000855	-0.001244
62509	11415811	-0.014040	0.075864	9.812975	-0.001982	-0.000364	0.000368
62510	11415836	0.007772	0.058879	9.793711	0.000067	-0.002913	-0.001070
62511	11415861	0.015590	0.073700	9.796053	0.000450	0.001818	0.002354
62512	11415886	-0.015162	0.093879	9.810103	-0.003351	-0.003946	-0.001770
62513	11415911	-0.011210	0.083733	9.796185	-0.002885	0.001618	-0.002956
62514	11415936	0.004281	0.066841	9.795631	-0.004630	-0.001769	0.001259
62515	11415961	0.016188	0.056646	9.820503	-0.002751	-0.002909	-0.003819
62516	11415986	-0.024585	0.085303	9.802480	-0.008401	-0.000088	-0.000577
62517	11416011	-0.027714	0.075520	9.795314	-0.001916	-0.001085	-0.004382
62518	11416036	-0.017623	0.080131	9.775122	-0.007868	-0.003062	-0.003932
62519	11416061	-0.016111	0.056027	9.805322	-0.001493	-0.004172	-0.002350
62520	11416086	-0.027135	0.099948	9.807767	-0.005451	-0.000368	-0.001290
62521	11416111	-0.012497	0.063808	9.819200	-0.010400	-0.000140	-0.006729
62522	11416136	-0.035525	0.089983	9.799655	-0.005199	-0.004108	-0.000541
62523	11416161	-0.021517	0.075606	9.792405	-0.001816	-0.001717	0.000934
62524	11416186	-0.015407	0.074180	9.797650	-0.002342	0.003122	0.000320
62525	11416211	0.002413	0.058905	9.811939	-0.009337	-0.002362	0.004353
62526	11416236	-0.015677	0.058998	9.792860	-0.007491	0.003672	-0.000948
62527	11416261	-0.007234	0.061959	9.822537	-0.009966	0.000387	-0.005312
62528	11416286	-0.019098	0.052234	9.832173	-0.002098	-0.000949	-0.001627
62529	11416311	-0.022829	0.057620	9.816851	-0.006768	-0.003427	-0.004126
62530	11416336	-0.022563	0.081987	9.809655	-0.000456	-0.008938	-0.004752
62531	11416361	-0.016745	0.107264	9.801473	-0.006586	-0.000639	0.000887
62532	11416386	-0.022244	0.083859	9.810615	-0.002365	0.001174	-0.002451
62533	11416411	-0.035493	0.114943	9.814043	-0.004035	0.001334	-0.005770
62534	11416436	-0.036426	0.110527	9.821226	-0.005008	-0.002170	-0.003740
62535	11416461	-0.025750	0.108205	9.801043	0.000668	-0.005552	-0.000048
62536	11416486	-0.024140	0.094559	9.794813	0.000577	-0.002715	-0.002798
62537	11416511	-0.024263	0.116134	9.777070	-0.002420	-0.005226	-0.002289
62538	11416536	-0.032863	0.104881	9.792460	-0.002873	-0.000907	-0.004636
62539	11416561	-0.025855	0.112541	9.796739	-0.001138	0.001134	-0.001423
62540	11416586	-0.054743	0.105642	9.785373	-0.004464	0.003535	0.002645
62541	11416611	-0.025950	0.084159	9.786190	-0.005242	0.003585	-0.000696
62542	11416636	-0.024302	0.098509	9.811099	-0.004104	-0.002143	0.001070
62543	11416661	-0.030523	0.070657	9.796752	-0.004812	-0.004159	0.001186
62544	11416686	-0.036420	0.083854	9.794881	-0.005987	0.000532	0.000064
62545	11416711	-0.021280	0.089588	9.808208	-0.003809	-0.003628	-0.001056
62546	11416736	-0.057923	0.089038	9.811755	-0.004107	-0.006607	-0.002159
62547	11416761	-0.004408	0.081904	9.790869	-0.010642	-0.004266	-0.002263
62548	11416786	-0.007554	0.068416	9.776515	-0.002840	0.000332	0.002035
62549	11416811	-0.020137	0.067748	9.810138	-0.004299	0.001521	-0.005709
62550	11416836	-0.010938	0.075799	9.781326	-0.008297	-0.003393	-0.001946
62551	11416861	-0.032070	0.067950	9.817381	-0.006299	-0.001863	-0.001624
62552	11416886	-0.025385	0.042613	9.801526	-0.008458	-0.004679	-0.002719
62553	11416911	-0.024573	0.075054	9.824522	-0.005588	-0.002049	-0.003225
62554	11416936	-0.030071	0.060413	9.813542	-0.005446	0.002231	0.003216
62555	11416961	-0.041308	0.083927	9.817417	-0.005665	-0.001654	-0.001746
62556	11416986	-0.033802	0.100720	9.809234	-0.008246	-0.002936	-0.001168
62557	11417011	-0.023515	0.084650	9.785702	-0.008298	-0.001183	0.000376
62558	11417036	-0.036908	0.092497	9.789600	-0.007433	-0.006278	0.000158
62559	11417061	-0.019122	0.070237	9.800542	-0.003940	-0.001431	-0.001173
62560	11417086	-0.030523	0.068102	9.802510	-0.011042	-0.003433	0.001079
62561	11417111	-0.019160	0.093939	9.827855	-0.011559	-0.001040	0.004232
62562	11417136	-0.059752	0.121135	9.792585	-0.004354	0.001329	-0.004102
62563	11417161	-0.045788	0.095118	9.831821	-0.000690	-0.003192	-0.003369
62564	11417186	-0.050840	0.103978	9.775281	-0.001083	-0.000605	-0.000086
62565	11417211	-0.032669	0.100626	9.788134	-0.005537	-0.007790	-0.000174
62566	11417236	-0.030827	0.099489	9.773757	-0.004274	0.003143	-0.002307
62567	11417261	-0.032235	0.101910	9.769935	-0.001058	0.002943	-0.000128
62568	11417286	-0.036462	0.083777	9.800627	-0.006926	-0.000198	-0.003852
62569	11417311	-0.037965	0.092219	9.807815	-0.004946	-0.003769	0.002798
62570	11417336	-0.033511	0.104341	9.824570	-0.005928	-0.001149	0.000758
62571	11417361	-0.041095	0.115603	9.796794	-0.005332	-0.002110	-0.004120
62572	11417386	-0.018539	0.098788	9.797663	-0.002466	0.002465	-0.003976
62573	11417411	-0.013797	0.098107	9.810569	-0.009057	-0.002053	-0.006294
62574	11417436	-0.037878	0.082743	9.808297	-0.003906	-0.002725	-0.002204
62575	11417461	-0.031574	0.075717	9.805388	-0.006278	-0.004050	0.003694
62576	11417486	-0.041773	0.081929	9.821256	-0.008160	-0.001642	-0.001806
62577	11417511	-0.047741	0.112170	9.798760	-0.006333	-0.000833	-0.001162
62578	11417536	-0.018232	0.080355	9.792377	-0.004058	-0.003693	0.001186
62579	11417561	-0.041696	0.096042	9.770931	-0.004587	0.001080	0.001280
62580	11417586	-0.017434	0.082429	9.811546	-0.005536	-0.001720	-0.000721
62581	11417611	-0.026016	0.077975	9.820711	-0.000700	-0.000796	-0.003362
62582	11417636	-0.013942	0.070316	9.804350	0.000009	0.001217	-0.002515
62583	11417661	-0.023005	0.072457	9.809663	-0.005269	-0.004244	-0.004712
62584	11417686	-0.045834	0.071725	9.808821	-0.001845	-0.003010	-0.000355
62585	11417711	-0.024722	0.091398	9.813988	0.000489	0.000127	-0.003611
62586	11417736	-0.020526	0.102998	9.800060	-0.003585	0.001608	-0.002123
62587	11417761	-0.032489	0.073056	9.793901	-0.002463	0.002335	-0.004169
62588	11417786	-0.015715	0.096298	9.805782	-0.005540	0.002536	-0.004479
62589	11417811	-0.014332	0.103023	9.803392	-0.004515	0.000028	-0.007643
62590	11417836	-0.035732	0.107467	9.803005	-0.007525	-0.005633	-0.000866
62591	11417861	-0.030000	0.105737	9.798182	-0.005922	-0.003596	0.000167
62592	11417886	-0.011450	0.094654	9.820620	-0.009634	-0.001736	-0.004625
62593	11417911	-0.022759	0.091932	9.802476	-0.012265	-0.001127	0.001475
62594	11417936	-0.033689	0.091942	9.795811	-0.006749	0.000525	-0.000070
62595	11417961	-0.018425	0.094608	9.791906	-0.004236	-0.000219	-0.001803
62596	11417986	-0.045065	0.083098	9.808339	-0.004251	-0.001828	-0.002967
62597	11418011	-0.051109	0.103258	9.818437	-0.005658	0.001201	0.007313
62598	11418036	-0.042170	0.108534	9.832285	0.004601	-0.002193	-0.000425
62599	11418061	-0.040882	0.074136	9.841389	-0.001720	-0.000483	0.002803
62600	11418086	-0.024932	0.079300	9.794343	-0.003806	0.000174	-0.003855
62601	11418111	-0.047320	0.105625	9.820326	-0.006562	-0.003420	-0.000149
62602	11418136	-0.042172	0.084741	9.797788	-0.000408	0.000046	-0.003928
62603	11418161	-0.023645	0.081797	9.817340	-0.008167	0.000159	-0.006858
62604	11418186	-0.032413	0.070067	9.801091	-0.005998	-0.003418	-0.003296
62605	11418211	-0.039225	0.082084	9.784348	-0.007682	-0.000528	0.000891
62606	11418236	-0.030604	0.086730	9.773767	0.001211	-0.000378	-0.002651
62607	11418261	-0.043492	0.081507	9.790112	-0.004478	-0.000274	0.002237
62608	11418286	-0.029113	0.050730	9.764160	-0.006069	-0.003083	-0.001369
62609	11418311	-0.051152	0.066777	9.817487	-0.003324	0.001946	0.004038
62610	11418336	-0.025273	0.059028	9.813995	-0.005780	0.000019	-0.001419
62611	11418361	-0.024451	0.071013	9.810633	-0.002173	-0.000696	-0.001816
62612	11418386	-0.017185	0.064926	9.806771	-0.009070	-0.000678	0.002503
62613	11418411	-0.033222	0.083744	9.806843	-0.004658	0.003339	0.001420
62614	11418436	-0.021132	0.075406	9.802474	-0.005595	0.000612	0.003843
62615	11418461	-0.011025	0.074243	9.795220	-0.004388	-0.003776	-0.005163
62616	11418486	-0.044148	0.080178	9.815527	-0.004201	0.002824	-0.003520
62617	11418511	-0.006170	0.087000	9.829707	-0.007729	0.001015	-0.000125
62618	11418536	-0.022287	0.103137	9.788563	-0.003552	-0.003360	0.001961
62619	11418561	-0.013029	0.084766	9.783734	-0.009406	0.001444	-0.001335
62620	11418586	0.000068	0.094112	9.808578	-0.003545	-0.003751	0.000863
62621	11418611	0.002455	0.098093	9.797062	-0.006261	-0.000699	0.000505
62622	11418636	-0.001936	0.106045	9.804768	-0.000633	-0.004932	-0.001076
62623	11418661	-0.005136	0.130547	9.811004	-0.004110	-0.004210	0.000672
62624	11418686	-0.000315	0.090922	9.798045	-0.006786	-0.002445	0.002481
62625	11418711	-0.019778	0.109371	9.817316	-0.003779	0.002000	0.000958
62626	11418736	-0.017002	0.085290	9.812035	-0.006251	-0.000560	0.004613
62627	11418761	-0.016470	0.092748	9.789009	-0.005959	-0.002110	0.002034
62628	11418786	-0.011010	0.070104	9.786608	-0.005955	0.001761	0.000320
62629	11418811	-0.034199	0.105898	9.784789	-0.004955	-0.003450	0.003055
62630	11418836	-0.037832	0.087621	9.794874	-0.006944	-0.006081	-0.004715
62631	11418861	0.015075	0.063213	9.822418	-0.006944	0.000456	-0.000201
62632	11418886	0.002326	0.068085	9.803785	-0.006631	-0.001813	-0.005212
62633	11418911	-0.022251	0.095937	9.795268	-0.005460	-0.002177	-0.002518
62634	11418936	-0.023361	0.061173	9.800572	-0.005576	0.003701	-0.002040
62635	11418961	-0.039377	0.093795	9.799677	-0.000936	-0.003318	-0.000611
62636	11418986	-0.038933	0.061203	9.788662	-0.002140	-0.001721	-0.000602
62637	11419011	-0.046196	0.099742	9.801628	-0.008751	0.001068	-0.000568
62638	11419036	-0.066590	0.081159	9.825219	-0.005265	-0.000040	-0.001034
62639	11419061	-0.050857	0.056447	9.802623	-0.012338	-0.003330	-0.003019
62640	11419086	-0.017873	0.044059	9.807247	-0.004669	-0.002278	0.003567
62641	11419111	-0.023615	0.048799	9.800090	-0.009193	0.000207	-0.005125
62642	11419136	-0.046515	0.089025	9.793497	-0.003415	0.002387	-0.001538
62643	11419161	-0.024554	0.080914	9.814949	-0.003625	-0.003040	0.001194
62644	11419186	-0.040127	0.071817	9.806877	-0.002682	-0.000960	-0.002196
62645	11419211	-0.027038	0.069105	9.779006	-0.002955	-0.002648	-0.003168
62646	11419236	-0.024957	0.077833	9.800095	-0.001910	-0.000414	0.004791
62647	11419261	-0.038535	0.088646	9.826035	-0.001360	-0.003847	0.000794
62648	11419286	-0.032182	0.083258	9.805872	-0.008178	-0.003126	-0.002842
62649	11419311	-0.016626	0.101738	9.794285	-0.004412	-0.000674	-0.002390
62650	11419336	-0.026091	0.094892	9.799605	-0.000918	-0.002161	-0.004458
62651	11419361	-0.011257	0.079116	9.818705	-0.003988	-0.000414	-0.007263
62652	11419386	-0.034084	0.118276	9.812100	-0.004046	-0.001818	0.002867
62653	11419411	-0.021584	0.116279	9.799101	-0.004025	0.000946	-0.004682
62654	11419436	-0.039669	0.149130	9.806849	-0.005369	-0.002885	-0.003551
62655	11419461	-0.024638	0.089789	9.791947	-0.004090	0.003539	-0.002363
62656	11419486	-0.005813	0.075333	9.786572	-0.009799	0.003691	-0.001067
62657	11419511	-0.035100	0.130472	9.791018	-0.004749	-0.000021	0.002429
62658	11419536	-0.017785	0.121228	9.786614	-0.008607	-0.001517	-0.000843
62659	11419561	-0.014459	0.083710	9.791400	-0.006525	-0.002705	0.000431
62660	11419586	-0.021703	0.095979	9.792407	-0.006416	-0.004655	-0.005609
62661	11419611	-0.049057	0.105058	9.798283	-0.001480	-0.002623	-0.003625
62662	11419636	-0.019828	0.091664	9.797650	-0.002518	-0.002323	-0.004964
62663	11419661	-0.038286	0.073779	9.803999	-0.003378	0.002697	-0.006346
62664	11419686	-0.021117	0.081734	9.795266	-0.002263	-0.001982	-0.000283
62665	11419711	-0.019002	0.085170	9.822589	0.000282	0.000709	-0.001493
62666	11419736	-0.014427	0.081068	9.779425	-0.006102	0.002272	-0.001664
62667	11419761	-0.032399	0.066976	9.789109	-0.002734	0.001104	-0.001295
62668	11419786	-0.008080	0.047687	9.829723	-0.001813	-0.000110	-0.003611
62669	11419811	-0.037031	0.072806	9.773304	-0.006640	-0.005417	0.000033
62670	11419836	-0.028501	0.062791	9.786691	-0.006680	0.000127	-0.003850
62671	11419861	-0.015545	0.088769	9.805304	-0.002432	-0.002958	-0.004417
62672	11419886	0.003104	0.041890	9.807630	-0.007315	-0.002119	0.001551
62673	11419911	-0.040608	0.079978	9.796812	-0.007997	-0.003247	-0.005244
62674	11419936	-0.037759	0.058595	9.836102	-0.002995	-0.001018	-0.001463
62675	11419961	-0.031553	0.074391	9.801549	-0.002255	-0.002298	-0.002626
62676	11419986	-0.030544	0.075440	9.792919	-0.005202	-0.004020	0.001219
62677	11420011	-0.035835	0.073673	9.809251	-0.006253	-0.007014	0.002809
62678	11420036	-0.056074	0.080282	9.823247	-0.010429	-0.002503	0.000986
62679	11420061	-0.041214	0.083538	9.815497	-0.004274	-0.005235	-0.000903
62680	11420086	-0.041228	0.078467	9.806883	-0.002028	0.000931	-0.001778
62681	11420111	-0.032936	0.091567	9.820743	-0.008130	0.003539	-0.003479
62682	11420136	-0.020705	0.075087	9.821631	-0.008848	-0.002028	-0.001068
62683	11420161	-0.028886	0.091492	9.803933	-0.000528	-0.006539	-0.004256
62684	11420186	-0.032447	0.093950	9.824080	-0.004812	-0.000086	-0.002483
62685	11420211	-0.050078	0.112757	9.792060	-0.000365	-0.001036	0.000584
62686	11420236	-0.010671	0.091686	9.770782	-0.006987	-0.000452	-0.005688
62687	11420261	-0.047400	0.119646	9.808332	-0.002135	-0.001839	-0.000633
62688	11420286	-0.019703	0.107594	9.811563	-0.000419	0.000905	0.000852
62689	11420311	-0.012695	0.082884	9.817280	-0.005428	-0.001523	-0.006075
62690	11420336	-0.044551	0.110409	9.820308	-0.006166	0.002286	-0.001054
62691	11420361	-0.029823	0.092092	9.788604	-0.008166	0.000305	-0.003876
62692	11420386	-0.008625	0.102917	9.809581	-0.009590	-0.002874	0.001490
62693	11420411	-0.039001	0.091249	9.806390	-0.008239	0.002958	-0.002326
62694	11420436	-0.019065	0.068886	9.800058	-0.003132	-0.003293	-0.005709
62695	11420461	-0.049895	0.084274	9.819384	-0.003216	-0.002183	0.000261
62696	11420486	-0.036027	0.091515	9.791030	-0.007631	-0.000201	-0.003760
62697	11420511	-0.046905	0.083238	9.804029	0.001003	-0.002119	-0.002246
62698	11420536	-0.044840	0.072866	9.793957	-0.005896	-0.000027	0.002015
62699	11420561	-0.024228	0.066547	9.789063	-0.005175	-0.005199	-0.003470
62700	11420586	-0.048894	0.083115	9.804048	-0.005014	0.002173	-0.003690
62701	11420611	-0.044834	0.062095	9.816005	-0.008298	-0.000983	0.000349
62702	11420636	-0.037730	0.074322	9.799666	-0.004093	-0.002657	-0.001149
62703	11420661	-0.043186	0.075138	9.835649	-0.001693	-0.003767	-0.000778
62704	11420686	-0.025922	0.072633	9.824546	-0.006367	-0.003397	0.001933
62705	11420711	-0.028872	0.083768	9.811139	-0.001442	-0.001770	-0.005195
62706	11420736	-0.012315	0.098084	9.787078	-0.004199	0.002709	-0.001188
62707	11420761	-0.026534	0.090946	9.808721	-0.004548	-0.004733	-0.003336
62708	11420786	-0.007450	0.080170	9.808631	-0.008930	0.000422	-0.003949
62709	11420811	-0.021945	0.072348	9.786649	-0.004624	-0.000344	-0.005051
62710	11420836	-0.038205	0.115673	9.789112	-0.009085	-0.000800	-0.001828
62711	11420861	-0.034862	0.095653	9.831781	-0.006790	-0.000840	-0.008121
62712	11420886	-0.033936	0.071756	9.815474	-0.004211	-0.003307	-0.003715
62713	11420911	-0.024673	0.093462	9.799595	-0.004528	-0.001107	-0.001401
62714	11420936	-0.009008	0.086502	9.830685	-0.005189	-0.002611	-0.002560
62715	11420961	-0.016268	0.071156	9.805317	-0.005345	-0.003313	0.002378
62716	11420986	-0.029713	0.081548	9.796281	-0.007665	-0.001232	-0.001453
62717	11421011	-0.006338	0.064444	9.816773	-0.008257	0.003211	-0.005147
62718	11421036	-0.036093	0.096533	9.799656	-0.009590	-0.004745	0.002895
62719	11421061	-0.039545	0.092604	9.815985	-0.003080	0.002085	-0.000615
62720	11421086	0.004236	0.103213	9.801372	-0.006250	0.002736	-0.002144
62721	11421111	-0.005965	0.079747	9.805736	-0.012323	0.000694	0.001007
62722	11421136	-0.030381	0.095180	9.807296	-0.005449	-0.004099	0.000706
62723	11421161	-0.035691	0.096919	9.808757	-0.006233	-0.001720	0.000016
62724	11421186	-0.033232	0.103520	9.788139	-0.006843	-0.003095	-0.004284
62725	11421211	-0.021690	0.091765	9.788079	-0.005686	-0.002933	-0.000122
62726	11421236	-0.040876	0.102459	9.785302	-0.007366	0.000010	0.003430
62727	11421261	-0.032239	0.090018	9.803474	-0.002286	-0.001267	-0.001401
62728	11421286	-0.037963	0.107012	9.834665	-0.002007	0.002162	-0.004400
62729	11421311	-0.033454	0.100595	9.823120	-0.002640	-0.002308	-0.004035
62730	11421336	-0.044030	0.126598	9.788663	-0.002275	-0.003392	0.000958
62731	11421361	-0.011452	0.083528	9.776534	-0.003736	-0.004332	-0.004172
62732	11421386	-0.025433	0.104559	9.820218	-0.003842	0.001679	-0.002219
62733	11421411	-0.029276	0.114259	9.802979	-0.000833	0.001600	-0.002865
62734	11421436	-0.040744	0.088716	9.790098	-0.000003	-0.002247	0.002566
62735	11421461	-0.022424	0.065442	9.802479	-0.004059	0.000517	0.000541
62736	11421486	-0.067857	0.116509	9.806052	-0.007758	-0.000137	-0.003242
62737	11421511	-0.036093	0.095280	9.795340	-0.005774	-0.002100	-0.001721
62738	11421536	-0.016626	0.072946	9.781344	-0.005510	-0.002609	-0.000311
62739	11421561	-0.030690	0.083051	9.793401	-0.003006	-0.000499	-0.000374
62740	11421586	-0.028476	0.087168	9.809219	-0.000644	0.002070	0.002392
62741	11421611	-0.032212	0.081719	9.812583	-0.007989	0.001283	-0.000216
62742	11421636	-0.023791	0.092781	9.813025	-0.004844	0.000818	-0.004081
62743	11421661	-0.021904	0.062714	9.797680	-0.003481	0.000459	-0.000496
62744	11421686	-0.022536	0.061290	9.824057	-0.004902	0.002892	0.000103
62745	11421711	-0.012525	0.068698	9.815849	-0.004962	-0.001636	-0.001851
62746	11421736	-0.041717	0.079067	9.823174	-0.007948	-0.004397	-0.001338
62747	11421761	-0.014129	0.080341	9.823508	-0.010461	-0.003538	0.001104
62748	11421786	-0.033976	0.072295	9.812595	-0.004360	-0.004591	-0.001799
62749	11421811	-0.019530	0.067913	9.797658	-0.005122	-0.002536	0.000329
62750	11421836	-0.020922	0.062125	9.801025	-0.007549	-0.000976	-0.004470
62751	11421861	-0.028483	0.084145	9.815921	-0.004584	0.000900	0.002266
62752	11421886	-0.032622	0.077594	9.808755	-0.002405	-0.001462	-0.002177
62753	11421911	-0.057553	0.086175	9.812225	-0.006163	0.000226	0.002013
62754	11421936	-0.029027	0.088909	9.814013	-0.004032	0.003877	0.001195
62755	11421961	-0.018028	0.088051	9.813942	-0.008878	-0.001056	0.000982
62756	11421986	0.007702	0.078236	9.830123	-0.002213	0.001207	0.005533
62757	11422011	-0.013300	0.094938	9.806736	-0.004368	-0.000212	-0.004667
62758	11422036	-0.036757	0.112323	9.799660	-0.001316	-0.003441	-0.000072
62759	11422061	-0.044376	0.115776	9.781499	-0.003405	0.001949	-0.002725
62760	11422086	-0.027837	0.110934	9.806335	-0.000821	0.003479	-0.000295
62761	11422111	-0.021962	0.101454	9.809172	0.000049	0.001813	-0.003128
62762	11422136	-0.045921	0.099332	9.833742	-0.003342	0.001679	-0.006323
62763	11422161	-0.029225	0.110266	9.814954	-0.002037	-0.001536	-0.008589
62764	11422186	-0.018388	0.088275	9.801008	-0.005572	-0.002675	-0.001658
62765	11422211	-0.031065	0.094751	9.832718	-0.005440	-0.000280	0.000085
62766	11422236	-0.048153	0.105010	9.799237	-0.005879	0.000860	-0.004974
62767	11422261	-0.033108	0.118866	9.805388	-0.006229	-0.001787	0.000460
62768	11422286	-0.026805	0.084227	9.780444	-0.005390	-0.002158	-0.001144
62769	11422311	-0.044609	0.095192	9.791078	-0.006932	-0.001664	0.001691
62770	11422336	-0.021682	0.084949	9.800555	-0.005326	-0.000088	-0.000486
62771	11422361	-0.027070	0.079680	9.831740	-0.003853	-0.000396	-0.006528
62772	11422386	-0.026429	0.071147	9.828379	-0.004257	-0.001429	0.000590
62773	11422411	-0.035478	0.067564	9.833690	-0.012515	-0.003316	0.001435
62774	11422436	-0.016842	0.061193	9.838873	-0.002046	-0.003013	-0.005005
62775	11422461	-0.045077	0.081047	9.812173	-0.011085	0.000206	0.003628
62776	11422486	-0.053404	0.081014	9.782012	-0.004168	-0.004458	0.000386
62777	11422511	0.004057	0.051577	9.795631	-0.008956	-0.006735	0.002559
62778	11422536	-0.021610	0.082598	9.800555	-0.005454	-0.004223	0.000386
62779	11422561	-0.036554	0.091904	9.800619	-0.000237	-0.001033	-0.001091
62780	11422586	-0.005912	0.063371	9.825881	-0.006834	0.002849	-0.004838
62781	11422611	-0.018186	0.106867	9.794779	-0.007723	0.004837	-0.003985
62782	11422636	-0.017528	0.093504	9.801008	-0.005007	0.002116	-0.000672
62783	11422661	-0.009750	0.071850	9.826859	-0.006926	-0.004451	-0.003526
62784	11422686	-0.008762	0.073025	9.815343	-0.004491	-0.002471	-0.004421
62785	11422711	-0.017468	0.087219	9.812986	0.000228	-0.006197	-0.004968
62786	11422736	-0.028410	0.092337	9.803457	-0.008626	-0.003052	-0.000495
62787	11422761	-0.027848	0.075717	9.808244	-0.007726	0.000699	-0.005355
62788	11422786	-0.039363	0.092450	9.791052	-0.002569	0.000027	0.000980
62789	11422811	-0.020905	0.102213	9.790964	-0.004001	0.000583	0.000980
62790	11422836	-0.015349	0.067805	9.808190	-0.004649	-0.001431	-0.001273
62791	11422861	-0.018274	0.073905	9.807732	-0.006518	-0.000747	0.001495
62792	11422886	-0.026818	0.077161	9.804418	-0.011058	-0.001425	-0.002855
62793	11422911	-0.033808	0.057503	9.813084	-0.007926	-0.002645	0.003542
62794	11422936	0.001900	0.067928	9.783663	-0.006470	0.003701	0.000106
62795	11422961	-0.043100	0.067600	9.830380	-0.004758	0.000775	0.005159
62796	11422986	-0.034570	0.050790	9.792477	-0.003354	0.000463	-0.000885
62797	11423011	-0.022002	0.068799	9.801513	-0.003254	0.000778	-0.004917
62798	11423036	-0.057423	0.079193	9.805055	-0.006001	0.003393	0.000301
62799	11423061	-0.048009	0.048677	9.820337	-0.008592	-0.002278	-0.001776
62800	11423086	-0.018616	0.062017	9.812040	-0.006633	-0.001408	-0.002553
62801	11423111	-0.028268	0.071053	9.804911	-0.003698	0.003038	-0.001633
62802	11423136	-0.011046	0.070907	9.800506	0.001039	-0.001213	-0.005449
62803	11423161	-0.018577	0.091832	9.816827	-0.004154	0.001353	-0.002155
62804	11423186	-0.035196	0.094232	9.804940	-0.002067	0.000489	0.001554
62805	11423211	-0.037942	0.087511	9.805896	-0.004159	-0.002265	0.001164
62806	11423236	-0.024192	0.087967	9.814938	-0.007442	-0.001998	-0.000370
62807	11423261	-0.018310	0.089492	9.782322	-0.006777	0.001170	-0.000928
62808	11423286	-0.009437	0.091098	9.810068	-0.005905	-0.002100	0.000331
62809	11423311	-0.041080	0.104485	9.812631	-0.003955	0.001231	-0.001064
62810	11423336	-0.017009	0.092583	9.799083	-0.005850	-0.000107	-0.004078
62811	11423361	-0.036154	0.089523	9.803504	-0.000116	0.005229	-0.003751
62812	11423386	-0.037682	0.076428	9.781946	-0.006923	0.001426	-0.005031
62813	11423411	-0.027456	0.107573	9.838928	-0.002958	-0.000449	-0.005887
62814	11423436	-0.023676	0.082904	9.807272	-0.003642	0.001231	-0.001264
62815	11423461	-0.037386	0.107546	9.827950	-0.007929	-0.000910	-0.002092
62816	11423486	-0.038515	0.063059	9.792489	-0.002787	0.000666	-0.000106
62817	11423511	-0.048439	0.089286	9.803559	-0.004911	-0.001319	-0.005436
62818	11423536	-0.040861	0.098100	9.792979	-0.006710	-0.001152	-0.003505
62819	11423561	-0.028393	0.084814	9.801062	-0.004281	-0.000586	0.001681
62820	11423586	-0.027194	0.079078	9.775658	-0.006326	-0.000890	-0.002034
62821	11423611	0.005047	0.084909	9.791310	-0.006956	-0.001679	-0.005308
62822	11423636	-0.042335	0.093548	9.809752	-0.005905	-0.002035	-0.000754
62823	11423661	-0.040621	0.068444	9.807356	-0.005087	0.000498	0.000086
62824	11423686	-0.018037	0.066047	9.800536	-0.003693	-0.005096	0.000958
62825	11423711	-0.027748	0.071488	9.804423	-0.004956	-0.001636	0.000265
62826	11423736	-0.004252	0.064615	9.805264	-0.009108	-0.004551	-0.002749
62827	11423761	-0.022862	0.067242	9.802957	-0.010866	-0.004965	0.001550
62828	11423786	-0.004586	0.079177	9.819152	-0.006881	0.000331	-0.001574
62829	11423811	-0.030711	0.112639	9.814972	-0.002018	-0.001316	0.001034
62830	11423836	-0.032500	0.071007	9.802045	-0.006317	0.001125	0.001895
62831	11423861	-0.028588	0.073206	9.785719	-0.007306	-0.002383	-0.001141
62832	11423886	-0.022280	0.056529	9.795767	-0.003162	-0.001724	0.000583
62833	11423911	-0.026474	0.072000	9.833648	-0.006649	-0.002764	-0.000824
62834	11423936	-0.012268	0.056305	9.791887	0.000110	0.000077	0.001293
62835	11423961	-0.052759	0.048270	9.813662	-0.006725	0.000153	0.003943
62836	11423986	-0.038728	0.078930	9.805907	-0.007010	-0.005479	0.001538
62837	11424011	-0.061356	0.097321	9.799778	-0.000559	-0.002980	-0.000963
62838	11424036	-0.024355	0.077048	9.789067	0.001097	-0.002626	0.001977
62839	11424061	-0.024181	0.059251	9.799136	-0.008339	-0.003888	0.002061
62840	11424086	-0.012898	0.065521	9.810096	0.000155	-0.005081	0.004475
62841	11424111	-0.030065	0.101663	9.816880	-0.003357	-0.003348	0.002690
62842	11424136	-0.039565	0.096316	9.815981	-0.007010	0.000460	-0.002019
62843	11424161	-0.037184	0.092576	9.818369	0.000383	0.002082	0.002334
62844	11424186	-0.016990	0.086241	9.812023	-0.004902	-0.003047	0.001992
62845	11424211	-0.029677	0.082107	9.789564	-0.007467	-0.003415	-0.000055
62846	11424236	-0.034074	0.127529	9.793893	-0.008084	-0.002076	-0.002353
62847	11424261	-0.051551	0.114572	9.800690	0.004385	-0.005405	0.000611
62848	11424286	-0.046562	0.131050	9.804972	-0.004497	-0.002016	-0.001532
62849	11424311	-0.028665	0.117336	9.783319	-0.007609	-0.000712	-0.001711
62850	11424336	-0.015347	0.118968	9.780379	-0.007671	0.001419	0.000618
62851	11424361	-0.042846	0.106688	9.787233	-0.005548	-0.000864	0.002070
62852	11424386	-0.014920	0.084209	9.790446	-0.005610	-0.003396	-0.002432
62853	11424411	-0.023209	0.095520	9.792882	-0.001541	-0.000279	-0.000435
62854	11424436	-0.029815	0.085764	9.801556	-0.003445	-0.000438	0.002649
62855	11424461	-0.026671	0.068330	9.792431	-0.007609	-0.000314	0.003813
62856	11424486	-0.038934	0.086563	9.806866	-0.001511	0.000760	0.001042
62857	11424511	-0.024637	0.037006	9.827888	-0.005201	0.000104	-0.000302
62858	11424536	-0.003238	0.045898	9.821560	-0.007927	-0.000645	0.002334
62859	11424561	-0.029958	0.025049	9.798681	-0.007156	-0.003153	-0.000890
62860	11424586	-0.015155	0.030314	9.779429	-0.006384	-0.003275	-0.002176
62861	11424611	-0.041776	0.042721	9.811212	-0.007419	0.003625	0.000113
62862	11424636	-0.059470	0.058216	9.811767	-0.003630	-0.005490	-0.003149
62863	11424661	-0.058599	0.052808	9.824705	-0.004214	-0.000378	0.006430
62864	11424686	-0.028058	0.052704	9.824551	-0.002845	-0.003794	0.000188
62865	11424711	-0.037638	0.056454	9.816451	-0.010119	-0.000104	0.000805
62866	11424736	-0.040829	0.052397	9.801610	-0.006855	-0.000243	-0.001195
62867	11424761	-0.029590	0.062877	9.810175	-0.005579	-0.000161	-0.000365
62868	11424786	-0.032074	0.083451	9.795811	-0.004941	-0.004342	-0.000066
62869	11424811	-0.007392	0.090111	9.787053	-0.002667	-0.001206	-0.001594
62870	11424836	-0.029769	0.091080	9.796264	-0.004223	-0.004785	-0.001802
62871	11424861	-0.012885	0.071367	9.792836	-0.007465	-0.003490	-0.002877
62872	11424886	-0.015620	0.103173	9.789975	-0.005718	-0.002037	-0.001141
62873	11424911	-0.013449	0.116958	9.789963	-0.006264	-0.000623	0.001369
62874	11424936	-0.027817	0.108892	9.810652	-0.006555	0.002405	-0.001246
62875	11424961	-0.030023	0.132588	9.810169	-0.005953	0.003909	-0.000402
62876	11424986	-0.038548	0.123701	9.824588	-0.007156	-0.000630	0.003166
62877	11425011	-0.009694	0.113996	9.802885	-0.004056	0.000055	-0.002481
62878	11425036	0.004253	0.096307	9.819111	-0.009313	-0.001575	-0.000173
62879	11425061	-0.016715	0.097994	9.814419	-0.008354	-0.003566	0.000328
62880	11425086	-0.010137	0.102507	9.811039	-0.005135	0.004049	-0.000665
62881	11425111	-0.021228	0.108668	9.830262	-0.006916	0.001554	-0.002399
62882	11425136	-0.012591	0.080696	9.804339	-0.006430	-0.004056	-0.004679
62883	11425161	-0.019430	0.086649	9.812040	-0.009419	-0.000030	0.001058
62884	11425186	-0.052605	0.080967	9.812691	-0.008748	-0.003515	-0.002995
62885	11425211	-0.023374	0.086314	9.829315	-0.010876	0.001293	-0.004192
62886	11425236	-0.024400	0.071042	9.806313	-0.005874	-0.002477	0.006746
62887	11425261	-0.024668	0.084632	9.816380	-0.006098	0.000151	-0.000553
62888	11425286	-0.042826	0.095015	9.809281	-0.003912	0.001411	-0.005868
62889	11425311	-0.026515	0.078862	9.822625	-0.001271	-0.002795	0.000763
62890	11425336	-0.007987	0.074758	9.826839	-0.003324	0.005566	-0.001749
62891	11425361	-0.060781	0.089758	9.792121	-0.008541	0.000304	-0.002469
62892	11425386	-0.016849	0.077475	9.800535	-0.000209	-0.002001	-0.000706
62893	11425411	-0.043689	0.082141	9.810252	-0.005580	0.004040	-0.002711
62894	11425436	-0.021468	0.063599	9.801030	-0.004365	0.002128	0.001186
62895	11425461	-0.031576	0.106368	9.817846	-0.005205	-0.002097	-0.004284
62896	11425486	-0.023077	0.087555	9.782817	-0.007720	-0.001025	0.003804
62897	11425511	0.006069	0.072296	9.811431	-0.004089	-0.002983	-0.002499
62898	11425536	-0.032057	0.093436	9.763212	-0.005133	0.000049	-0.000492
62899	11425561	0.000235	0.089025	9.795168	-0.010258	-0.004253	-0.001851
62900	11425586	-0.024367	0.113852	9.795758	-0.011125	-0.003171	-0.002800
62901	11425611	-0.005319	0.110911	9.791835	-0.004908	0.001085	0.001244
62902	11425636	-0.008160	0.113795	9.789932	0.001381	-0.001456	-0.000328
62903	11425661	-0.009986	0.103480	9.805276	-0.005576	-0.004546	-0.000001
62904	11425686	-0.007742	0.102554	9.811026	-0.001064	0.000961	0.001423
62905	11425711	-0.022231	0.119232	9.825951	-0.001255	-0.003177	0.001924
62906	11425736	0.000052	0.095940	9.808101	-0.007047	-0.002383	-0.000118
62907	11425761	-0.014246	0.100302	9.793313	-0.007080	-0.001486	-0.003001
62908	11425786	-0.030660	0.116945	9.809216	-0.005573	-0.004679	-0.002246
62909	11425811	-0.030987	0.087590	9.833672	-0.008208	-0.002016	-0.000753
62910	11425836	-0.012415	0.096220	9.812482	-0.008002	0.001675	-0.000986
62911	11425861	-0.013213	0.086857	9.809131	-0.001876	0.002100	-0.002541
62912	11425886	-0.018583	0.100061	9.810114	-0.000356	-0.001554	-0.002244
62913	11425911	-0.022131	0.073314	9.819740	0.000730	-0.001471	-0.001605
62914	11425936	-0.001901	0.088091	9.831131	0.001040	-0.003208	-0.002581
62915	11425961	-0.015986	0.082468	9.808655	-0.006860	-0.001924	0.000976
62916	11425986	-0.012969	0.075161	9.794767	-0.007074	0.000198	-0.003177
62917	11426011	-0.047968	0.083350	9.819378	-0.006592	-0.000563	-0.000550
62918	11426036	-0.040639	0.077586	9.799213	-0.009039	-0.000222	-0.001375
62919	11426061	-0.035653	0.045406	9.829873	-0.004859	-0.000854	-0.001453
62920	11426086	-0.032509	0.064114	9.818347	-0.006640	0.000723	-0.003111
62921	11426111	-0.026572	0.070425	9.843238	-0.005494	0.001203	-0.000481
62922	11426136	-0.048338	0.080787	9.800692	-0.007848	0.000905	-0.000283
62923	11426161	-0.025207	0.070957	9.782833	-0.002538	-0.001729	-0.005001
62924	11426186	-0.054077	0.081658	9.799762	-0.005877	0.003587	0.003059
62925	11426211	-0.053939	0.084405	9.779150	-0.003910	0.001283	-0.005548
62926	11426236	-0.047926	0.096762	9.781022	-0.005345	-0.003776	-0.003335
62927	11426261	-0.014281	0.078296	9.770311	-0.010021	-0.001459	0.000799
62928	11426286	-0.036975	0.089031	9.796800	-0.008550	0.000560	-0.001760
62929	11426311	-0.048754	0.112403	9.809777	-0.010885	-0.002579	-0.002861
62930	11426336	-0.023217	0.086075	9.815886	-0.008018	-0.004345	-0.003779
62931	11426361	-0.040946	0.111383	9.791532	-0.006357	-0.006177	-0.000519
62932	11426386	-0.055731	0.093044	9.830442	-0.007452	-0.005819	-0.001797
62933	11426411	-0.016306	0.102928	9.810114	-0.002304	0.001647	0.000212
62934	11426436	-0.033172	0.090608	9.792948	-0.002280	0.002480	-0.004780
62935	11426461	-0.050056	0.099299	9.801651	-0.003012	0.005828	-0.001492
62936	11426486	-0.041266	0.098913	9.772367	-0.003949	0.002970	-0.000799
62937	11426511	-0.025640	0.093429	9.801049	-0.006844	0.001103	-0.004716
62938	11426536	-0.023573	0.080609	9.802003	-0.004405	0.001158	-0.001705
62939	11426561	-0.044843	0.099250	9.808805	-0.004776	0.000830	-0.001003
62940	11426586	-0.017493	0.092653	9.803889	0.005019	-0.003196	0.000234
62941	11426611	-0.011304	0.094180	9.792830	-0.008333	0.001527	-0.006503
62942	11426636	-0.020986	0.092680	9.817323	-0.009707	0.000934	0.001191
62943	11426661	0.004873	0.074716	9.839725	-0.002594	-0.001593	-0.003015
62944	11426686	-0.015258	0.068440	9.799083	-0.005996	-0.003465	-0.002241
62945	11426711	-0.021194	0.083583	9.795756	-0.004402	0.001158	-0.000553
62946	11426736	-0.010598	0.068862	9.805293	-0.005089	0.000231	-0.005113
62947	11426761	-0.042020	0.073822	9.798737	-0.004075	-0.001036	0.000530
62948	11426786	-0.007093	0.052678	9.810551	-0.008044	0.001226	0.002471
62949	11426811	-0.028382	0.077504	9.812565	-0.008981	0.000164	-0.002152
62950	11426836	-0.013824	0.074196	9.792842	-0.008021	-0.004606	-0.005512
62951	11426861	-0.038002	0.067959	9.780981	-0.005455	-0.004488	-0.003079
62952	11426886	-0.013569	0.075370	9.812016	-0.004138	-0.001363	-0.003073
62953	11426911	-0.036905	0.082300	9.804948	-0.005427	-0.001325	-0.004406
62954	11426936	-0.020254	0.079179	9.807724	-0.003144	-0.000237	0.000076
62955	11426961	-0.034307	0.070676	9.792466	-0.004020	-0.001298	-0.003512
62956	11426986	-0.019178	0.086344	9.768899	-0.009003	0.000878	-0.000417
62957	11427011	-0.040014	0.097733	9.815009	-0.006565	-0.003602	-0.001660
62958	11427036	-0.005088	0.080603	9.814365	-0.007799	0.001618	0.002922
62959	11427061	-0.016234	0.061062	9.814425	-0.006205	-0.000823	-0.002609
62960	11427086	-0.010812	0.053274	9.802425	-0.001016	-0.002924	-0.001742
62961	11427111	-0.047392	0.082188	9.802122	-0.007795	0.000700	-0.004195
62962	11427136	-0.038498	0.086934	9.809269	-0.007509	0.004065	-0.003155
62963	11427161	-0.035748	0.101655	9.812119	-0.005819	-0.003341	-0.008008
62964	11427186	-0.014323	0.065088	9.802432	-0.005133	-0.000016	-0.000425
62965	11427211	-0.024897	0.078302	9.797217	-0.004408	-0.003184	-0.004680
62966	11427236	-0.010523	0.099590	9.811510	-0.004739	-0.000401	-0.001523
62967	11427261	-0.034285	0.095357	9.819302	-0.009416	-0.004366	-0.001852
62968	11427286	-0.022564	0.071426	9.812548	-0.006716	0.001107	-0.002471
62969	11427311	-0.022760	0.097284	9.799107	-0.004221	-0.002852	-0.003394
62970	11427336	-0.041396	0.108152	9.785773	-0.005892	-0.004363	0.000902
62971	11427361	-0.024868	0.078429	9.788097	-0.005063	-0.002418	-0.002238
62972	11427386	-0.032209	0.086051	9.808744	-0.005835	-0.004168	0.001539
62973	11427411	-0.004877	0.088108	9.763069	-0.003883	0.000508	-0.005561
62974	11427436	-0.005424	0.080342	9.806699	-0.002131	-0.002496	-0.005321
62975	11427461	-0.042886	0.100870	9.796828	-0.002633	0.001960	0.000408
62976	11427486	-0.027562	0.091354	9.815926	0.001149	-0.000761	-0.005199
62977	11427511	-0.040610	0.104945	9.810699	-0.005171	-0.000657	0.003161
62978	11427536	-0.044223	0.092097	9.813606	0.000565	-0.004050	0.000368
62979	11427561	-0.024599	0.079444	9.817821	-0.003274	-0.000253	-0.002037
62980	11427586	-0.020243	0.081521	9.804852	-0.009264	-0.000931	0.000541
62981	11427611	-0.017868	0.085549	9.790953	-0.009565	0.002351	-0.003032
62982	11427636	0.000338	0.062593	9.820093	-0.005993	0.004676	-0.003992
62983	11427661	-0.054431	0.099723	9.829457	-0.006121	-0.001197	0.000148
62984	11427686	-0.036933	0.080922	9.802061	-0.003532	-0.000183	-0.001974
62985	11427711	-0.046239	0.101573	9.810246	-0.004588	-0.002719	0.003020
62986	11427736	-0.029938	0.098054	9.802987	-0.005405	-0.003709	0.000259
62987	11427761	-0.010952	0.107660	9.785628	-0.000641	-0.000662	-0.003840
62988	11427786	-0.047556	0.124228	9.815057	-0.005345	0.002821	-0.000280
62989	11427811	-0.059186	0.107507	9.814157	-0.005442	-0.000283	0.000155
62990	11427836	-0.025012	0.089851	9.788580	-0.003266	-0.000440	-0.001076
62991	11427861	-0.053531	0.110976	9.808846	-0.005448	-0.000215	0.001433
62992	11427886	-0.048043	0.092170	9.802121	-0.003047	0.003254	0.002730
62993	11427911	-0.005145	0.094167	9.797110	-0.008377	0.001279	0.000101
62994	11427936	0.009341	0.078080	9.804238	-0.009100	-0.001962	0.001301
62995	11427961	-0.042212	0.087031	9.800167	-0.008187	-0.000715	0.000151
62996	11427986	-0.026695	0.092187	9.818794	-0.004280	0.003287	-0.002909
62997	11428011	-0.029242	0.074668	9.812572	-0.007467	-0.001220	-0.000431
62998	11428036	-0.019234	0.069546	9.816839	-0.004886	0.000243	0.000854
62999	11428061	-0.020410	0.097265	9.799578	-0.006948	-0.001411	-0.000559
63000	11428086	-0.018595	0.052802	9.825945	-0.001779	-0.000794	0.002249
63001	11428111	-0.015185	0.041016	9.822583	-0.006224	0.006229	0.000054
63002	11428136	-0.029385	0.086572	9.812572	-0.004534	-0.002916	-0.000314
63003	11428161	-0.004148	0.060993	9.794243	-0.008780	-0.006354	0.001085
63004	11428186	-0.037916	0.056064	9.782905	-0.004402	0.000761	-0.002217
63005	11428211	-0.009596	0.070749	9.804811	-0.006890	-0.001474	-0.001326
63006	11428236	-0.031012	0.064877	9.802044	-0.004232	0.001936	-0.001255
63007	11428261	-0.019349	0.079458	9.818275	-0.006105	0.000283	-0.000358
63008	11428286	0.007449	0.054945	9.770208	-0.003587	-0.002375	0.003654
63009	11428311	-0.019104	0.099839	9.822577	-0.002378	-0.002167	-0.000703
63010	11428336	-0.030223	0.068771	9.827919	-0.004408	-0.003047	-0.003524
63011	11428361	-0.016116	0.091614	9.801962	-0.005513	0.001909	-0.000095
63012	11428386	-0.019474	0.087011	9.821631	-0.004613	0.001734	-0.001891
63013	11428411	-0.019380	0.080994	9.813960	-0.004490	0.001796	-0.002024
63014	11428436	-0.040854	0.099857	9.799686	-0.007221	-0.007299	-0.002705
63015	11428461	-0.021310	0.098919	9.787602	-0.003207	-0.000444	-0.000624
63016	11428486	-0.008502	0.104754	9.787525	-0.002973	-0.003541	0.000188
63017	11428511	-0.041958	0.107623	9.791543	-0.004585	0.000827	-0.001259
63018	11428536	-0.024306	0.101132	9.799129	0.001016	0.001632	-0.002743
63019	11428561	-0.038313	0.113645	9.803982	-0.004272	0.001164	0.000216
63020	11428586	-0.043765	0.102712	9.801126	-0.002636	-0.006436	-0.000978
63021	11428611	-0.022911	0.072840	9.788585	-0.000623	0.001420	0.000848
63022	11428636	-0.030379	0.099657	9.790518	-0.005452	-0.002217	0.001551
63023	11428661	-0.003061	0.070656	9.817238	-0.006028	0.001836	-0.001508
63024	11428686	-0.018089	0.090813	9.821625	-0.004865	0.001401	-0.002469
63025	11428711	-0.039476	0.085892	9.816940	-0.006014	0.001711	0.001314
63026	11428736	-0.058763	0.121172	9.787317	-0.007726	0.001165	0.000232
63027	11428761	-0.020137	0.106511	9.816839	-0.006881	-0.001612	-0.002676
63028	11428786	-0.044336	0.111187	9.800645	-0.007997	-0.004786	-0.000443
63029	11428811	-0.032669	0.076711	9.827443	-0.010951	-0.004128	0.002259
63030	11428836	-0.031904	0.096520	9.806837	-0.008148	0.001790	-0.004125
63031	11428861	-0.021673	0.091318	9.784259	-0.008138	-0.000200	-0.000609
63032	11428886	-0.023069	0.078821	9.794809	-0.006837	0.001311	0.001891
63033	11428911	-0.029897	0.054864	9.805388	-0.006390	-0.001279	-0.004020
63034	11428936	-0.022500	0.034636	9.801043	-0.005579	-0.000551	-0.004984
63035	11428961	-0.033336	0.054640	9.816911	-0.005576	-0.000285	0.000340
63036	11428986	-0.026494	0.051646	9.802985	-0.003709	-0.002451	0.001159
63037	11429011	-0.027188	0.074185	9.789067	-0.000905	-0.002600	-0.004235
63038	11429036	-0.028836	0.074160	9.817364	-0.004362	-0.000007	0.000851
63039	11429061	-0.032086	0.070872	9.811628	-0.004058	-0.001678	0.000905
63040	11429086	-0.008534	0.067830	9.781321	-0.006847	0.001898	0.002730
63041	11429111	-0.027413	0.089730	9.793861	-0.004092	-0.002645	0.001544
63042	11429136	-0.020686	0.074795	9.814447	-0.002789	-0.001337	0.000651
63043	11429161	-0.014882	0.080424	9.795242	-0.000982	-0.006422	-0.005023
63044	11429186	-0.016647	0.071493	9.784712	-0.005479	-0.001781	-0.006080
63045	11429211	-0.020816	0.100986	9.778494	-0.002514	-0.000177	-0.003190
63046	11429236	-0.033225	0.092299	9.801086	-0.009690	0.000024	-0.002784
63047	11429261	-0.022389	0.103407	9.802468	-0.004667	-0.002851	-0.000124
63048	11429286	-0.037685	0.109499	9.796310	-0.002465	-0.001068	0.003280
63049	11429311	-0.041918	0.106116	9.794898	-0.004767	0.000374	-0.001958
63050	11429336	-0.034983	0.115137	9.802057	-0.003430	0.002387	-0.007154
63051	11429361	-0.029807	0.116450	9.815443	0.000025	-0.001030	-0.000384
63052	11429386	-0.020678	0.110313	9.816827	-0.004487	-0.000471	-0.004600
63053	11429411	-0.027391	0.122426	9.794821	-0.005905	0.000094	-0.001517
63054	11429436	-0.015334	0.069676	9.811063	-0.003943	-0.003490	-0.002116
63055	11429461	-0.026683	0.090246	9.822149	-0.005640	-0.000358	-0.003764
63056	11429486	-0.039374	0.088021	9.800154	-0.003296	0.000985	0.003293
63057	11429511	-0.039906	0.099537	9.792490	-0.004964	-0.001699	-0.001524
63058	11429536	-0.012613	0.077121	9.823502	-0.003687	-0.005558	-0.002129
63059	11429561	-0.041271	0.092010	9.791541	-0.001764	-0.001453	-0.002879
63060	11429586	-0.015736	0.093242	9.819688	-0.005475	0.001015	0.001633
63061	11429611	-0.031577	0.073745	9.810181	-0.006951	-0.003478	-0.002556
63062	11429636	-0.027554	0.060267	9.795308	-0.003849	-0.000060	0.000340
63063	11429661	-0.031810	0.082619	9.821213	-0.002371	-0.000560	-0.003263
63064	11429686	-0.063544	0.070971	9.809882	-0.006332	0.003380	-0.001302
63065	11429711	-0.014661	0.044443	9.819693	-0.002849	0.000668	0.000595
63066	11429736	-0.036673	0.067791	9.793920	-0.002307	-0.000556	-0.001526
63067	11429761	-0.032488	0.035525	9.795827	-0.006281	-0.000365	-0.001776
63068	11429786	-0.044437	0.071266	9.811216	-0.000121	-0.001174	-0.005320
63069	11429811	-0.019223	0.068950	9.821148	-0.008263	-0.002666	-0.004475
63070	11429836	-0.026359	0.068709	9.807783	0.000608	0.004929	0.000867
63071	11429861	-0.049603	0.066282	9.817947	-0.004545	-0.004861	-0.002569
63072	11429886	-0.044180	0.084311	9.824629	-0.003606	-0.002207	-0.005440
63073	11429911	-0.026032	0.039964	9.823113	-0.004144	-0.001115	-0.003383
63074	11429936	-0.032062	0.059254	9.824575	-0.007966	0.002439	-0.003612
63075	11429961	-0.015448	0.068495	9.824498	-0.005198	0.000171	0.000735
63076	11429986	-0.040545	0.067986	9.806402	-0.010154	-0.003350	-0.002028
63077	11430011	-0.035062	0.082263	9.807820	-0.003777	0.001548	-0.002591
63078	11430036	-0.037580	0.091072	9.821232	-0.004028	-0.004920	-0.002441
63079	11430061	-0.047396	0.086911	9.808352	-0.005056	-0.006355	0.001343
63080	11430086	-0.032831	0.097176	9.798689	-0.003275	-0.000259	-0.004603
63081	11430111	-0.037255	0.105843	9.814038	-0.008135	-0.002342	-0.001003
63082	11430136	-0.008423	0.084497	9.804316	-0.009914	0.001501	0.000492
63083	11430161	-0.037419	0.117355	9.809251	-0.005381	0.002168	0.001326
63084	11430186	-0.047418	0.128842	9.795405	-0.003117	-0.001684	-0.006908
63085	11430211	-0.014750	0.097809	9.802421	-0.004449	0.000365	-0.004914
63086	11430236	0.003596	0.120957	9.794660	-0.002627	0.001889	0.000671
63087	11430261	-0.021769	0.126983	9.808198	-0.009410	-0.002958	-0.006582
63088	11430286	-0.003648	0.094281	9.791358	-0.008351	-0.001699	-0.000937
63089	11430311	-0.005853	0.072024	9.813890	-0.012223	-0.004613	-0.000304
63090	11430336	-0.014163	0.085449	9.807706	-0.002427	0.001501	-0.000620
63091	11430361	-0.010772	0.089015	9.796185	0.001015	0.001755	-0.002296
63092	11430386	-0.023740	0.095389	9.794333	-0.008368	0.003143	-0.001684
63093	11430411	-0.019040	0.065511	9.794785	-0.011697	-0.000848	0.002280
63094	11430436	-0.029997	0.072235	9.786214	-0.005573	-0.002821	-0.006080
63095	11430461	-0.035580	0.089562	9.799177	-0.003414	0.000323	-0.000685
63096	11430486	-0.041226	0.079410	9.806883	-0.002462	0.000603	-0.000748
63097	11430511	-0.052767	0.062897	9.790172	-0.005034	-0.001512	-0.001068
63098	11430536	-0.048748	0.066659	9.823693	-0.006418	-0.001788	0.001241
63099	11430561	-0.030370	0.057376	9.798204	-0.003390	-0.002387	0.000714
63100	11430586	-0.035102	0.085941	9.814514	-0.008620	-0.001454	-0.003691
63101	11430611	-0.023396	0.078050	9.784741	-0.005198	-0.002426	-0.005117
63102	11430636	-0.015580	0.051672	9.806289	-0.008221	-0.001504	0.000156
63103	11430661	-0.033885	0.064638	9.816427	-0.004011	-0.003172	-0.001274
63104	11430686	-0.019315	0.083526	9.806770	0.000575	-0.002579	-0.002247
63105	11430711	-0.058027	0.092431	9.806479	-0.006481	-0.001849	0.003034
63106	11430736	-0.046936	0.081767	9.801645	-0.006743	0.002334	-0.000469
63107	11430761	-0.032713	0.081664	9.818818	-0.003679	-0.001092	0.004698
63108	11430786	-0.032074	0.076792	9.796758	-0.004698	0.000231	-0.004403
63109	11430811	-0.001594	0.073762	9.804292	-0.004101	-0.000137	-0.000946
63110	11430836	-0.018982	0.089011	9.815872	-0.001539	-0.000349	-0.002424
63111	11430861	-0.062077	0.108880	9.819920	-0.001679	-0.004241	-0.003974
63112	11430886	-0.027640	0.072224	9.789562	-0.003140	-0.000450	-0.000682
63113	11430911	-0.044792	0.106551	9.797300	-0.002824	-0.002249	-0.001785
63114	11430936	-0.037174	0.097989	9.806383	0.000188	0.001879	-0.000742
63115	11430961	-0.021827	0.089568	9.810138	-0.002678	0.000912	-0.005426
63116	11430986	-0.031387	0.093768	9.804423	-0.006895	0.001173	-0.000735
63117	11431011	-0.035442	0.103437	9.821703	-0.003938	0.001034	0.002977
63118	11431036	-0.044917	0.110303	9.802586	0.000659	0.001171	0.000021
63119	11431061	-0.035176	0.098568	9.798212	-0.006597	-0.002049	0.002202
63120	11431086	0.008268	0.086700	9.802313	-0.006624	-0.001475	0.000016
63121	11431111	-0.031305	0.084612	9.814989	-0.000347	0.000244	-0.002997
63122	11431136	-0.017017	0.089601	9.810109	-0.003499	-0.001493	-0.004411
63123	11431161	0.000207	0.088041	9.800442	-0.005862	-0.003597	-0.002943
63124	11431186	-0.018660	0.083323	9.778484	-0.011623	-0.003247	-0.000039
63125	11431211	-0.035111	0.093249	9.799168	-0.011523	-0.002795	-0.004332
63126	11431236	-0.031311	0.090817	9.810175	-0.006683	-0.003611	-0.000116
63127	11431261	-0.023826	0.093309	9.812063	-0.002003	0.002223	-0.003564
63128	11431286	-0.021456	0.075865	9.775156	-0.002678	0.003044	-0.005287
63129	11431311	-0.032879	0.059400	9.816427	-0.005662	-0.001916	-0.003189
63130	11431336	-0.025975	0.091799	9.782828	-0.004543	-0.000530	0.000532
63131	11431361	-0.018307	0.087173	9.783286	-0.003381	0.001560	0.001633
63132	11431386	-0.029215	0.067946	9.815927	-0.006701	-0.001089	-0.000043
63133	11431411	0.006572	0.078419	9.784598	-0.005978	0.000349	0.000481
63134	11431436	-0.047690	0.101380	9.817936	-0.008284	-0.001964	-0.003372
63135	11431461	-0.009384	0.085395	9.811987	-0.004132	-0.001371	-0.002617
63136	11431486	-0.024744	0.087918	9.819730	-0.006010	0.001244	-0.004201
63137	11431511	-0.027129	0.086461	9.820230	-0.004157	0.003208	-0.006306
63138	11431536	-0.036029	0.087404	9.810205	-0.008972	-0.002557	-0.003117
63139	11431561	-0.023395	0.076471	9.792407	-0.006640	-0.003423	-0.005309
63140	11431586	-0.012812	0.069635	9.786606	-0.002491	-0.002824	-0.000957
63141	11431611	-0.031764	0.085740	9.801091	-0.007610	0.003681	-0.000201
63142	11431636	-0.028359	0.050000	9.784299	-0.002524	0.004606	-0.001112
63143	11431661	-0.033667	0.087518	9.806366	-0.005576	0.000097	0.001314
63144	11431686	-0.027714	0.076453	9.793388	-0.001772	-0.003007	-0.000510
63145	11431711	-0.020111	0.074869	9.804376	-0.009525	-0.004815	0.002640
63146	11431736	-0.031038	0.106492	9.810169	-0.006449	-0.003085	-0.000693
63147	11431761	-0.023602	0.077869	9.825964	-0.006241	-0.003728	-0.002044
63148	11431786	-0.042439	0.112438	9.787703	-0.000507	-0.002661	-0.000255
63149	11431811	-0.019242	0.104078	9.826422	-0.000857	0.000302	-0.001779
63150	11431836	-0.008137	0.097188	9.818686	-0.004993	-0.002679	-0.004096
63151	11431861	-0.048037	0.096998	9.799237	-0.002556	-0.002369	0.001545
63152	11431886	-0.021426	0.095123	9.815886	-0.005354	-0.000800	0.002079
63153	11431911	-0.037532	0.092229	9.807332	-0.003779	-0.002195	0.002575
63154	11431936	-0.035730	0.069071	9.799661	-0.009187	-0.005455	0.001036
63155	11431961	-0.032889	0.107004	9.803471	-0.007483	-0.004393	0.002190
63156	11431986	-0.016793	0.073141	9.796693	-0.009003	0.000805	-0.001952
63157	11432011	-0.000579	0.080369	9.772642	-0.009109	0.001960	-0.005475
63158	11432036	-0.013551	0.082151	9.804339	-0.003503	-0.001098	-0.001010
63159	11432061	-0.015864	0.069176	9.813936	-0.004667	-0.000864	-0.002865
63160	11432086	-0.026156	0.089321	9.818305	-0.007159	0.001293	0.000615
63161	11432111	-0.036903	0.086702	9.795835	-0.008699	-0.002870	-0.002669
63162	11432136	-0.048286	0.077472	9.804041	-0.003722	-0.002204	-0.002293
63163	11432161	-0.034615	0.079062	9.833212	-0.004265	-0.003573	-0.004290
63164	11432186	-0.018713	0.073419	9.812516	-0.002496	-0.004761	-0.001678
63165	11432211	-0.026980	0.090073	9.796741	-0.011252	-0.000851	-0.000350
63166	11432236	-0.031333	0.055449	9.801567	-0.000302	-0.000775	0.001740
63167	11432261	-0.026837	0.073157	9.815433	-0.010738	-0.005235	-0.002296
63168	11432286	-0.004399	0.073596	9.811009	-0.007218	-0.005369	-0.004424
63169	11432311	-0.022710	0.047770	9.810633	-0.002317	-0.002173	-0.001796
63170	11432336	-0.012407	0.062591	9.808661	-0.008751	-0.001056	0.001056
63171	11432361	-0.042927	0.077411	9.779096	-0.003549	0.000715	0.001888
63172	11432386	-0.030798	0.086609	9.805860	-0.007379	-0.001939	-0.001068
63173	11432411	-0.026524	0.087138	9.805848	-0.007921	0.000691	-0.005282
63174	11432436	-0.020786	0.080905	9.813966	-0.007859	0.001019	-0.002907
63175	11432461	-0.035617	0.089797	9.808763	-0.007907	-0.001302	0.000924
63176	11432486	-0.040750	0.089450	9.802080	-0.001140	-0.005193	-0.002514
63177	11432511	-0.015365	0.109556	9.810092	-0.003047	-0.003223	-0.000830
63178	11432536	-0.027322	0.079823	9.789080	-0.003143	0.001951	0.001763
63179	11432561	-0.020844	0.096451	9.795267	-0.002961	-0.001661	0.002769
63180	11432586	-0.038215	0.114406	9.784336	-0.005309	0.001517	-0.002596
63181	11432611	-0.016946	0.115535	9.818728	-0.006887	-0.001486	-0.003377
63182	11432636	-0.023865	0.109535	9.803422	-0.005610	-0.003465	-0.002684
63183	11432661	-0.015456	0.086113	9.791881	-0.002842	-0.001930	-0.002363
63184	11432686	-0.007237	0.093729	9.823002	-0.009200	0.003195	0.000244
63185	11432711	-0.002951	0.103072	9.806201	-0.009345	0.001706	-0.000276
63186	11432736	-0.031315	0.092937	9.800126	-0.003827	0.001156	-0.001508
63187	11432761	-0.023388	0.097566	9.809186	-0.005619	0.003323	-0.002582
63188	11432786	-0.027775	0.109926	9.807773	-0.003281	0.002396	0.000677
63189	11432811	-0.009847	0.095828	9.784180	-0.001410	-0.000484	-0.003001
63190	11432836	-0.037650	0.087253	9.824598	-0.001542	0.006247	0.001208
63191	11432861	-0.016675	0.094640	9.817769	-0.008030	-0.001299	0.002913
63192	11432886	-0.020381	0.089486	9.813001	-0.005992	-0.003344	-0.001658
63193	11432911	-0.017116	0.090949	9.815378	-0.003476	0.000125	-0.004020
63194	11432936	-0.021756	0.092681	9.789045	-0.006759	0.002918	-0.001298
63195	11432961	-0.036154	0.094089	9.814996	-0.001569	-0.001056	0.002323
63196	11432986	-0.039816	0.084174	9.806866	-0.001426	-0.001960	0.000007
63197	11433011	-0.027837	0.078090	9.809208	-0.002106	-0.002621	0.000583
63198	11433036	-0.024394	0.071113	9.803916	-0.003454	-0.003044	-0.006281
63199	11433061	-0.025956	0.081102	9.802967	-0.002024	-0.001070	-0.000697
63200	11433086	-0.016786	0.060426	9.825450	-0.002229	-0.000419	0.003222
63201	11433111	-0.009574	0.060220	9.811999	-0.005530	0.000814	0.003172
63202	11433136	-0.043444	0.072410	9.797311	-0.003792	0.000194	0.000857
63203	11433161	-0.061736	0.086391	9.801710	-0.001204	-0.000603	-0.000307
63204	11433186	-0.047427	0.082969	9.815056	-0.003456	-0.004120	0.004683
63205	11433211	-0.059353	0.078200	9.808898	-0.001758	0.002614	-0.001955
63206	11433236	-0.030892	0.066060	9.787172	-0.003667	-0.001742	0.000978
63207	11433261	-0.045455	0.071138	9.816485	-0.003405	0.000003	-0.001195
63208	11433286	-0.042989	0.078110	9.794905	-0.005670	-0.001140	-0.000168
63209	11433311	-0.048211	0.075659	9.793968	-0.006439	-0.001085	0.000219
63210	11433336	-0.033382	0.099379	9.808757	-0.003622	0.000578	-0.003625
63211	11433361	-0.024769	0.081491	9.774687	-0.004655	-0.003578	-0.004418
63212	11433386	-0.029629	0.096820	9.823127	-0.002994	-0.001025	-0.003834
63213	11433411	-0.034303	0.100407	9.804453	-0.004219	0.000946	-0.005804
63214	11433436	-0.035083	0.098271	9.783830	-0.005841	-0.001715	0.001688
63215	11433461	-0.022193	0.117929	9.818756	0.000039	-0.001884	-0.004101
63216	11433486	-0.001226	0.109993	9.824896	-0.001027	-0.000349	-0.001527
63217	11433511	-0.031919	0.100455	9.799637	-0.007153	0.003166	-0.002448
63218	11433536	-0.028845	0.086787	9.793867	-0.008425	-0.000851	0.004068
63219	11433561	-0.013564	0.085676	9.784694	-0.009984	0.003834	0.000188
63220	11433586	-0.004038	0.088485	9.798063	-0.007209	-0.003554	-0.000885
63221	11433611	-0.028131	0.113037	9.789546	-0.003788	-0.004274	-0.001733
63222	11433636	-0.037435	0.081178	9.812136	-0.008872	0.000349	-0.005282
63223	11433661	0.007824	0.089278	9.786983	-0.008450	-0.000143	0.003621
63224	11433686	-0.015712	0.102917	9.805300	-0.007887	-0.004154	-0.002556
63225	11433711	-0.041167	0.111473	9.812633	-0.011174	0.001165	0.002107
63226	11433736	-0.059138	0.100908	9.813202	-0.003235	0.002584	-0.003357
63227	11433761	-0.055818	0.110102	9.804548	-0.003403	-0.002258	-0.000817
63228	11433786	-0.051135	0.074629	9.804553	0.001629	0.000477	-0.004348
63229	11433811	-0.046828	0.084989	9.779596	0.000928	0.000599	-0.001328
63230	11433836	-0.032120	0.071090	9.827449	-0.006068	-0.003216	-0.003065
63231	11433861	-0.016943	0.078646	9.811081	-0.004691	0.002043	-0.004581
63232	11433886	-0.029282	0.089384	9.786690	0.000285	-0.001025	0.000778
63233	11433911	-0.037088	0.092826	9.803027	-0.000077	0.003935	-0.003812
63234	11433936	-0.029064	0.063369	9.806819	-0.007389	-0.001681	-0.001198
63235	11433961	-0.049215	0.086180	9.789176	-0.005677	-0.005400	-0.002436
63236	11433986	-0.041823	0.091232	9.809279	-0.001390	0.000608	-0.005628
63237	11434011	-0.044584	0.074408	9.817924	-0.008808	0.000677	-0.004132
63238	11434036	-0.035046	0.084305	9.798701	-0.007540	0.001416	0.001326
63239	11434061	-0.032879	0.097462	9.807796	-0.007202	0.000779	-0.000031
63240	11434086	-0.022308	0.091989	9.801515	-0.007717	0.002834	0.000305
63241	11434111	-0.030504	0.095037	9.814490	-0.006914	-0.000320	-0.000681
63242	11434136	-0.011038	0.062447	9.819187	-0.006090	-0.002505	-0.004475
63243	11434161	-0.024554	0.088708	9.798177	-0.008082	-0.002083	-0.000295
63244	11434186	-0.017618	0.068920	9.799093	-0.001505	-0.005656	-0.002450
63245	11434211	-0.051616	0.094377	9.780559	-0.006351	-0.006449	-0.003400
63246	11434236	-0.029890	0.098297	9.789570	-0.003533	-0.000063	-0.000486
63247	11434261	-0.010760	0.093215	9.795691	-0.005610	-0.003661	-0.005442
63248	11434286	-0.001678	0.083815	9.800452	-0.001732	-0.000355	-0.000630
63249	11434311	-0.023704	0.088082	9.811105	-0.003707	-0.002451	0.001228
63250	11434336	-0.024792	0.104353	9.801520	-0.003500	-0.003366	-0.004423
63251	11434361	-0.000910	0.078995	9.835917	-0.003587	0.002138	0.002085
63252	11434386	-0.002425	0.063785	9.803331	-0.004275	0.001152	-0.001061
63253	11434411	-0.011480	0.109466	9.787072	-0.004058	0.000513	0.001435
63254	11434436	-0.021293	0.092048	9.800060	-0.005582	-0.001846	0.000788
63255	11434461	-0.038404	0.082658	9.810699	-0.005645	-0.001907	0.000913
63256	11434486	-0.054955	0.078397	9.798796	-0.003719	-0.001933	0.003411
63257	11434511	-0.032210	0.077724	9.826483	-0.008048	-0.002918	0.001365
63258	11434536	-0.045649	0.085356	9.813621	-0.005966	0.004025	-0.002831
63259	11434561	-0.011597	0.081278	9.800501	-0.004588	-0.003251	-0.001724
63260	11434586	-0.031134	0.082975	9.795804	-0.004166	-0.002329	0.000206
63261	11434611	-0.046847	0.101747	9.829427	-0.002584	-0.001530	0.000973
63262	11434636	-0.035618	0.085966	9.817381	-0.003457	-0.002520	-0.002298
63263	11434661	-0.036264	0.060288	9.819812	-0.001287	-0.000475	-0.002491
63264	11434686	-0.029420	0.097762	9.790052	-0.007842	0.000173	-0.004326
63265	11434711	-0.044976	0.098278	9.840454	-0.006205	-0.000565	-0.002733
63266	11434736	-0.045607	0.089792	9.806432	-0.005917	0.000079	-0.004970
63267	11434761	-0.017862	0.086068	9.792858	-0.002708	-0.000121	-0.005053
63268	11434786	-0.030901	0.079951	9.837021	-0.005195	-0.001830	0.003161
63269	11434811	-0.029769	0.084856	9.799149	-0.005458	-0.001843	-0.001715
63270	11434836	-0.006455	0.058546	9.770274	-0.004278	0.000948	-0.005041
63271	11434861	-0.012433	0.074929	9.777977	-0.008787	0.004368	-0.001350
63272	11434886	-0.036306	0.076848	9.792482	-0.002448	0.000019	-0.001709
63273	11434911	-0.038241	0.077527	9.804942	-0.006123	-0.005402	-0.000320
63274	11434936	-0.017568	0.055481	9.807253	-0.003135	-0.000383	0.000402
63275	11434961	-0.039327	0.078839	9.809752	-0.008020	0.001918	-0.004317
63276	11434986	-0.046290	0.110840	9.794437	-0.001970	0.000729	-0.005302
63277	11435011	-0.042487	0.105412	9.808321	-0.005519	0.000024	-0.002600
63278	11435036	-0.038414	0.081109	9.818848	-0.005630	-0.000553	-0.000548
63279	11435061	0.002613	0.078994	9.808095	-0.005122	0.001585	-0.001442
63280	11435086	-0.001891	0.096895	9.807636	-0.007968	-0.001104	0.003102
63281	11435111	-0.030375	0.094517	9.792447	-0.000417	0.002968	0.001185
63282	11435136	-0.041545	0.114264	9.791541	-0.001386	0.001265	0.002527
63283	11435161	-0.041063	0.137176	9.810225	-0.008413	0.004895	-0.000770
63284	11435186	-0.054933	0.123649	9.782013	-0.010039	-0.000697	-0.001243
63285	11435211	-0.039882	0.100082	9.786744	-0.004630	-0.000285	-0.005358
63286	11435236	-0.006266	0.072483	9.790879	-0.003758	0.000766	-0.004081
63287	11435261	-0.009888	0.081375	9.824933	-0.008126	-0.000533	-0.001450
63288	11435286	-0.042023	0.098563	9.822221	-0.004096	-0.000463	-0.003380
63289	11435311	-0.013043	0.075512	9.801955	-0.007571	0.002255	-0.000918
63290	11435336	-0.030988	0.051189	9.826495	-0.008224	0.000700	0.001770
63291	11435361	-0.053109	0.086456	9.802145	-0.000528	-0.003818	0.001536
63292	11435386	-0.035882	0.077306	9.789605	-0.007330	0.002645	-0.002521
63293	11435411	-0.007302	0.073169	9.806712	-0.006387	0.001507	0.001964
63294	11435436	-0.021436	0.067928	9.795751	-0.004517	-0.001639	-0.004794
63295	11435461	-0.018897	0.052647	9.803899	-0.005911	-0.004311	-0.004612
63296	11435486	-0.021623	0.070921	9.819728	-0.001305	-0.001508	0.000200
63297	11435511	-0.029915	0.095344	9.798664	-0.002412	-0.001280	-0.004603
63298	11435536	-0.057387	0.087380	9.798344	-0.004357	-0.000797	-0.005038
63299	11435561	-0.033435	0.104585	9.806843	-0.002795	-0.001086	-0.000243
63300	11435586	-0.030456	0.086957	9.819776	-0.002189	0.002091	-0.001252
63301	11435611	-0.025623	0.092557	9.794344	-0.006446	0.005050	-0.003469
63302	11435636	-0.018042	0.090018	9.810116	-0.007170	0.001417	-0.003487
63303	11435661	-0.024233	0.084572	9.820702	-0.007308	0.002067	-0.001559
63304	11435686	-0.045139	0.094133	9.803059	-0.003669	-0.001946	-0.002162
63305	11435711	-0.042281	0.085360	9.818389	-0.005791	0.000343	-0.003110
63306	11435736	-0.041467	0.107940	9.800638	-0.004318	-0.003107	0.004433
63307	11435761	-0.032786	0.100103	9.791024	-0.006413	0.001557	-0.006178
63308	11435786	-0.042121	0.110523	9.822226	0.002620	-0.004479	-0.003292
63309	11435811	-0.023227	0.080404	9.820700	0.000377	0.001882	-0.000498
63310	11435836	-0.015996	0.082994	9.809626	-0.002412	-0.001085	-0.002106
63311	11435861	-0.033902	0.102186	9.813072	-0.003190	-0.000243	0.003104
63312	11435886	-0.042645	0.091022	9.791078	-0.003634	-0.001103	-0.002350
63313	11435911	-0.036608	0.088293	9.814050	-0.005050	-0.000541	-0.002417
63314	11435936	-0.009221	0.076122	9.794738	-0.009939	0.002214	0.000881
63315	11435961	-0.017120	0.064125	9.797652	-0.006957	-0.001420	-0.003247
63316	11435986	-0.039107	0.072052	9.786744	-0.007740	0.001742	0.002481
63317	11436011	-0.018642	0.072049	9.810609	-0.001502	-0.005718	-0.001940
63318	11436036	-0.002248	0.049432	9.811008	-0.004794	-0.003123	-0.003392
63319	11436061	-0.037138	0.060438	9.809744	-0.002705	-0.002253	-0.002746
63320	11436086	-0.021790	0.084052	9.824045	-0.006154	-0.002249	-0.001456
63321	11436111	-0.033519	0.069924	9.814519	0.001523	-0.000103	-0.000951
63322	11436136	-0.011789	0.088193	9.813436	-0.006494	-0.001733	-0.002161
63323	11436161	-0.028226	0.052565	9.835106	-0.003657	0.002070	-0.000677
63324	11436186	-0.025930	0.078550	9.812071	-0.004248	-0.004087	-0.004357
63325	11436211	-0.021977	0.072140	9.801030	-0.003129	-0.000964	-0.002994
63326	11436236	-0.028426	0.086515	9.814956	-0.006121	-0.005078	0.001539
63327	11436261	-0.022455	0.090563	9.835054	-0.004853	-0.000936	-0.003509
63328	11436286	-0.026355	0.082680	9.789552	-0.004281	-0.000855	-0.002931
63329	11436311	-0.011707	0.089944	9.786608	-0.009485	0.001700	-0.003734
63330	11436336	-0.055562	0.121839	9.811254	-0.003093	-0.002067	-0.004156
63331	11436361	-0.031067	0.103994	9.819288	-0.004785	-0.000927	-0.000615
63332	11436386	-0.016396	0.083626	9.793814	-0.009468	-0.000823	-0.004011
63333	11436411	-0.004705	0.068759	9.787054	-0.006390	-0.003091	-0.002553
63334	11436436	-0.024389	0.068208	9.807277	-0.003546	-0.001736	-0.000441
63335	11436461	-0.012236	0.087311	9.806736	-0.005524	-0.003906	0.000064
63336	11436486	-0.038750	0.114142	9.799196	-0.005142	0.002228	-0.000855
63337	11436511	-0.032072	0.108335	9.812100	-0.005198	-0.000098	-0.002672
63338	11436536	-0.041941	0.097335	9.811677	-0.005080	0.000627	0.001763
63339	11436561	-0.035245	0.097084	9.802544	-0.002682	0.003438	-0.001948
63340	11436586	-0.056645	0.100108	9.802158	-0.006191	-0.003351	-0.005822
63341	11436611	-0.035675	0.101390	9.800609	-0.004759	-0.003576	-0.000119
63342	11436636	-0.047138	0.101474	9.790617	0.001855	0.001773	-0.001903
63343	11436661	-0.031766	0.086671	9.800132	-0.007567	0.002588	0.004217
63344	11436686	-0.040734	0.074877	9.822209	-0.005014	-0.001709	-0.001264
63345	11436711	-0.032952	0.069529	9.805883	-0.005078	-0.000164	-0.005104
63346	11436736	-0.047703	0.101906	9.812662	-0.009257	-0.003065	0.001881
63347	11436761	-0.054269	0.107536	9.785856	-0.004952	-0.000100	-0.004202
63348	11436786	-0.025025	0.085439	9.798175	-0.002860	0.000849	-0.001577
63349	11436811	-0.027881	0.081431	9.809208	-0.003205	-0.000578	-0.002992
63350	11436836	-0.010911	0.080798	9.830691	-0.004697	0.002304	-0.001886
63351	11436861	-0.033069	0.081094	9.792466	-0.007199	0.002192	-0.003995
63352	11436886	-0.027079	0.088365	9.818788	-0.006995	-0.001928	-0.000043
63353	11436911	-0.003350	0.090521	9.817711	-0.010471	0.000980	0.002089
63354	11436936	-0.023800	0.066635	9.788102	-0.003763	0.000960	-0.003821
63355	11436961	-0.017177	0.084141	9.763129	-0.004733	-0.000802	-0.003831
63356	11436986	-0.002771	0.065657	9.774566	-0.003803	0.002384	-0.003304
63357	11437011	-0.028474	0.064099	9.791006	-0.007999	-0.002928	-0.003830
63358	11437036	-0.007130	0.070183	9.785624	-0.006616	-0.001936	-0.003895
63359	11437061	0.003504	0.047138	9.809542	-0.005738	-0.001201	-0.001715
63360	11437086	-0.020036	0.089806	9.829778	-0.000739	0.000827	-0.000434
63361	11437111	-0.037575	0.098076	9.797276	-0.004521	0.000954	-0.001444
63362	11437136	-0.010784	0.052198	9.807690	-0.006481	-0.006253	-0.000583
63363	11437161	-0.019599	0.095473	9.824498	-0.007597	-0.001504	-0.007163
63364	11437186	-0.008880	0.087414	9.803356	-0.005686	-0.003013	-0.003581
63365	11437211	-0.016900	0.085523	9.796216	-0.005770	-0.001843	0.002779
63366	11437236	-0.023507	0.071886	9.812548	-0.004727	-0.002986	-0.001150
63367	11437261	-0.024008	0.076787	9.805357	-0.003703	-0.000525	0.000599
63368	11437286	-0.026675	0.071214	9.790995	-0.005893	-0.002375	-0.000881
63369	11437311	0.004051	0.083310	9.803290	-0.006545	-0.001594	0.003549
63370	11437336	-0.005424	0.077887	9.812445	-0.001863	-0.004624	-0.003150
63371	11437361	-0.028503	0.096729	9.799619	-0.004268	-0.001247	-0.004090
63372	11437386	-0.052831	0.091356	9.823229	-0.003625	-0.003561	-0.005059
63373	11437411	-0.039761	0.095839	9.785296	-0.006765	-0.005423	-0.003012
63374	11437436	-0.017424	0.079055	9.813960	-0.004077	0.000763	-0.004265
63375	11437461	-0.029826	0.092174	9.786214	-0.005074	-0.001958	0.000140
63376	11437486	-0.026802	0.076454	9.792441	-0.002468	0.000599	-0.003634
63377	11437511	-0.044331	0.101258	9.804493	-0.000902	-0.000143	-0.000629
63378	11437536	-0.012749	0.091167	9.800978	-0.007486	0.003350	-0.002708
63379	11437561	-0.020212	0.119459	9.805807	-0.009735	-0.006308	0.001223
63380	11437586	-0.010339	0.082993	9.814878	-0.003901	0.001612	-0.000289
63381	11437611	-0.016952	0.086814	9.803881	-0.007325	-0.001156	0.002657
63382	11437636	-0.042873	0.094385	9.815510	-0.007497	-0.001669	0.006434
63383	11437661	-0.043248	0.090359	9.799697	-0.005403	0.002354	-0.002463
63384	11437686	-0.044475	0.077004	9.800191	-0.007981	0.001155	-0.000022
63385	11437711	-0.026231	0.069354	9.792431	-0.006160	0.002153	-0.000727
63386	11437736	-0.023542	0.081685	9.790494	-0.009383	0.000936	0.001961
63387	11437761	-0.025901	0.062104	9.831728	-0.006497	0.001119	0.003247
63388	11437786	-0.036783	0.112159	9.807803	-0.002867	-0.004834	0.000253
63389	11437811	-0.033578	0.081980	9.800613	-0.001943	0.000088	-0.003381
63390	11437836	-0.028140	0.071675	9.792919	-0.007033	-0.000447	0.000864
63391	11437861	-0.011793	0.094967	9.802421	-0.006346	-0.000905	-0.008243
63392	11437886	-0.030134	0.075837	9.800114	-0.006482	-0.001797	-0.000300
63393	11437911	-0.009114	0.078181	9.785153	-0.006697	-0.003412	0.000075
63394	11437936	-0.029656	0.081564	9.793880	-0.008699	-0.003065	-0.003248
63395	11437961	-0.038504	0.099535	9.796316	-0.002374	-0.002505	-0.004353
63396	11437986	-0.017854	0.079235	9.803893	-0.004013	0.000831	-0.001061
63397	11438011	-0.041606	0.077089	9.798260	-0.006478	0.000344	0.002155
63398	11438036	-0.028958	0.107372	9.781888	-0.009255	-0.003073	0.000729
63399	11438061	-0.017872	0.078313	9.803396	-0.003706	0.001286	-0.003374
63400	11438086	-0.007630	0.067672	9.794259	-0.000599	-0.001952	-0.003909
63401	11438111	-0.032484	0.108966	9.803464	-0.004029	-0.002463	0.000010
63402	11438136	-0.030952	0.093988	9.819283	-0.007138	-0.001483	-0.001389
63403	11438161	-0.028645	0.101254	9.813525	-0.005189	-0.000553	-0.003953
63404	11438186	-0.028980	0.087541	9.808744	-0.004637	0.002694	0.000870
63405	11438211	-0.020640	0.108416	9.816821	-0.005545	-0.003205	-0.001082
63406	11438236	-0.039179	0.109685	9.807816	-0.007488	-0.002652	-0.001968
63407	11438261	-0.043429	0.113731	9.792993	-0.008775	-0.000483	-0.003488
63408	11438286	-0.037147	0.094930	9.815480	-0.004496	-0.001626	0.002839
63409	11438311	-0.047052	0.092180	9.799714	-0.007693	-0.000538	-0.007729
63410	11438336	-0.046100	0.085502	9.808345	-0.004175	0.004451	-0.000528
63411	11438361	-0.024006	0.087015	9.784741	-0.007156	-0.000836	-0.000809
63412	11438386	-0.024333	0.069360	9.793379	-0.004698	0.000302	-0.002991
63413	11438411	-0.013849	0.075256	9.789968	-0.002208	-0.003791	-0.003149
63414	11438436	-0.019418	0.053077	9.810132	-0.001225	-0.002751	-0.006410
63415	11438461	-0.011896	0.088632	9.814395	-0.004622	0.003785	-0.004448
63416	11438486	-0.032585	0.080570	9.800126	-0.005972	-0.001979	-0.001262
63417	11438511	-0.046597	0.093117	9.804036	-0.003751	0.000377	-0.004973
63418	11438536	-0.016043	0.083922	9.812021	-0.003222	-0.000131	-0.004147
63419	11438561	-0.001024	0.065673	9.806198	-0.002873	0.001170	-0.001578
63420	11438586	-0.038639	0.075281	9.793444	-0.007999	-0.004730	-0.000374
63421	11438611	-0.048704	0.088545	9.853883	-0.005430	-0.003144	-0.005500
63422	11438636	-0.018790	0.081961	9.808679	-0.007103	-0.004776	-0.000188
63423	11438661	-0.029979	0.073204	9.788609	-0.000802	-0.004038	-0.007060
63424	11438686	-0.020126	0.074027	9.804374	-0.002275	-0.001596	-0.002939
63425	11438711	-0.018534	0.085502	9.826411	-0.005841	-0.000180	-0.005752
63426	11438736	-0.015212	0.047323	9.815395	-0.004968	0.005147	0.001846
63427	11438761	-0.029277	0.073205	9.819757	-0.001472	-0.001076	-0.007877
63428	11438786	-0.005893	0.076948	9.807183	-0.007845	-0.003497	-0.001270
63429	11438811	-0.019656	0.069216	9.805823	-0.004964	0.002357	-0.003874
63430	11438836	-0.005232	0.060861	9.805264	-0.005423	-0.001001	0.000912
63431	11438861	-0.041028	0.066500	9.810235	-0.006136	-0.002560	0.002131
63432	11438886	-0.037449	0.089674	9.783860	-0.010031	0.003383	0.001658
63433	11438911	-0.006636	0.103194	9.794726	-0.008519	-0.002342	0.001365
63434	11438936	-0.037920	0.087975	9.801581	-0.011005	-0.002715	-0.000548
63435	11438961	-0.023642	0.107694	9.829320	-0.007018	0.002970	-0.003996
63436	11438986	-0.039711	0.096002	9.838511	-0.004472	0.001010	-0.005098
63437	11439011	-0.016867	0.104598	9.823055	-0.005193	0.003512	-0.006557
63438	11439036	-0.023735	0.105105	9.785700	-0.001299	-0.004427	-0.005589
63439	11439061	-0.017336	0.087594	9.785194	-0.003211	-0.002319	-0.002560
63440	11439086	-0.031384	0.097991	9.805865	-0.007030	-0.002314	0.004256
63441	11439111	-0.012337	0.095453	9.805287	-0.004545	-0.000535	-0.001074
63442	11439136	-0.034764	0.093015	9.817381	-0.006007	-0.002818	0.000912
63443	11439161	-0.038363	0.123615	9.799666	-0.006753	0.000522	-0.001566
63444	11439186	-0.011307	0.082929	9.815354	-0.006528	-0.000504	-0.001709
63445	11439211	-0.027819	0.080221	9.794349	-0.003687	0.000772	-0.001772
63446	11439236	-0.030660	0.077264	9.801090	-0.002731	0.000654	-0.004271
63447	11439261	-0.006287	0.072663	9.811985	-0.001726	-0.006883	-0.001237
63448	11439286	-0.037018	0.091624	9.815475	-0.005582	-0.008635	-0.004955
63449	11439311	-0.052763	0.105779	9.778168	-0.003427	-0.001751	-0.006013
63450	11439336	-0.029340	0.086257	9.802498	-0.004007	-0.002775	0.005330
63451	11439361	-0.036230	0.088011	9.833212	-0.007086	-0.001162	-0.003181
63452	11439386	-0.018358	0.088239	9.801014	-0.007039	-0.002973	-0.003831
63453	11439411	-0.052773	0.080278	9.830429	-0.007415	-0.000778	0.000289
63454	11439436	-0.051252	0.085952	9.801181	-0.006965	0.001100	-0.002013
63455	11439461	-0.022672	0.075924	9.825481	-0.010216	-0.001276	0.000606
63456	11439486	-0.023130	0.079063	9.810145	-0.005692	-0.000624	-0.002740
63457	11439511	-0.022278	0.050694	9.804888	-0.007030	0.001363	-0.000730
63458	11439536	-0.022349	0.084957	9.830750	-0.004755	-0.000152	-0.004013
63459	11439561	-0.040913	0.063454	9.792979	-0.005893	-0.000495	-0.001256
63460	11439586	-0.022368	0.056094	9.820212	-0.009459	-0.002749	0.000985
